time,seconds_elapsed,z,y,x
1706425642614680300,0.227680419921875,1.5436553955078125,0.43842220306396484,-1.873326063156128
1706425642618611200,0.231611083984375,1.3802404403686523,0.364776611328125,-1.695921540260315
1706425642622550800,0.23555078125,1.2998723983764648,0.32090842723846436,-1.5666825771331787
1706425642626510000,0.239510009765625,1.0046672821044922,0.46087217330932617,-1.7604107856750488
1706425642630497500,0.24349755859375,0.31738758087158203,0.7962033748626709,-2.4721121788024902
1706425642634515500,0.247515380859375,-0.23111724853515625,1.4561984539031982,-3.845102548599243
1706425642638561500,0.2515615234375,-0.20638465881347656,2.3402626514434814,-5.320901870727539
1706425642642629400,0.25562939453125,-0.013798713684082031,2.9051170349121094,-5.68898868560791
1706425642646668500,0.25966845703125,-0.040515899658203125,2.741572618484497,-4.520410060882568
1706425642650676000,0.263676025390625,-0.4438505172729492,1.8847558498382568,-2.3297219276428223
1706425642654695400,0.2676953125,-1.0220508575439453,0.8454329967498779,-0.6372131109237671
1706425642658729500,0.2717294921875,-1.330174446105957,-0.08203458786010742,0.3997699022293091
1706425642662774300,0.275774169921875,-1.1343193054199219,-0.7754395008087158,1.1991324424743652
1706425642666825200,0.2798251953125,-0.5743265151977539,-1.2070789337158203,1.8441803455352783
1706425642670862600,0.283862548828125,0.0048046112060546875,-1.3390743732452393,2.2004075050354004
1706425642674881300,0.28788134765625,0.4360342025756836,-1.2429795265197754,2.266155958175659
1706425642678899700,0.291899658203125,0.7507877349853516,-0.9857053756713867,2.139413595199585
1706425642682917400,0.29591748046875,1.035649299621582,-0.6490318775177002,1.903975486755371
1706425642686937600,0.2999375,1.1664466857910156,-0.3528614044189453,1.5727686882019043
1706425642690950100,0.3039501953125,1.2624406814575195,-0.12063932418823242,1.1948308944702148
1706425642694963700,0.307963623046875,1.1891021728515625,0.008592367172241211,0.784873366355896
1706425642698979300,0.311979248046875,1.0862102508544922,0.036054134368896484,0.44936707615852356
1706425642702997000,0.3159970703125,0.9498310089111328,-0.009528875350952148,0.28455859422683716
1706425642707016700,0.3200166015625,0.7505826950073242,-0.07735824584960938,0.252204954624176
1706425642711038200,0.3240380859375,0.5757160186767578,-0.20615458488464355,0.31572532653808594
1706425642715060700,0.328060791015625,0.34741973876953125,-0.32907652854919434,0.36583685874938965
1706425642719083500,0.33208349609375,0.10622978210449219,-0.4345207214355469,0.41044434905052185
1706425642723102700,0.336102783203125,-0.1178293228149414,-0.4948115348815918,0.48028188943862915
1706425642727120000,0.340119873046875,-0.3257627487182617,-0.5132296085357666,0.5281662344932556
1706425642731137300,0.34413720703125,-0.41832637786865234,-0.4533045291900635,0.5265771150588989
1706425642735155000,0.348155029296875,-0.4944610595703125,-0.3609616756439209,0.47848841547966003
1706425642739173000,0.352173095703125,-0.5874271392822266,-0.2716679573059082,0.41485995054244995
1706425642743191800,0.35619189453125,-0.5989809036254883,-0.21523785591125488,0.39617443084716797
1706425642747210800,0.360210693359375,-0.5382022857666016,-0.14163661003112793,0.3437112271785736
1706425642751230200,0.364230224609375,-0.45821666717529297,-0.07216739654541016,0.2225629687309265
1706425642755249700,0.368249755859375,-0.44826698303222656,-0.034647464752197266,0.16241323947906494
1706425642759269000,0.37226904296875,-0.47865867614746094,-0.04227328300476074,0.1589956283569336
1706425642763287600,0.37628759765625,-0.5157623291015625,-0.09389996528625488,0.2155904769897461
1706425642767306000,0.380305908203125,-0.5571680068969727,-0.15800929069519043,0.3353605568408966
1706425642771324200,0.38432421875,-0.5677299499511719,-0.20141291618347168,0.4369558095932007
1706425642775342300,0.38834228515625,-0.6372194290161133,-0.22220110893249512,0.49716389179229736
1706425642779360500,0.392360595703125,-0.6636514663696289,-0.22999238967895508,0.5734241604804993
1706425642783379200,0.396379150390625,-0.7089042663574219,-0.2368640899658203,0.6302444934844971
1706425642787398100,0.400398193359375,-0.7373981475830078,-0.259249210357666,0.71533203125
1706425642791416800,0.404416748046875,-0.7612247467041016,-0.2779867649078369,0.7485203742980957
1706425642795435500,0.408435546875,-0.7945365905761719,-0.26975131034851074,0.7827662825584412
1706425642799454000,0.412453857421875,-0.7947750091552734,-0.27051711082458496,0.8680106401443481
1706425642803472400,0.416472412109375,-0.7060575485229492,-0.32024526596069336,1.0224305391311646
1706425642807490800,0.42049072265625,-0.6004219055175781,-0.3877432346343994,1.1648679971694946
1706425642811509200,0.42450927734375,-0.5862998962402344,-0.49396395683288574,1.2813327312469482
1706425642815527700,0.428527587890625,-0.4949684143066406,-0.6500542163848877,1.4454569816589355
1706425642819546000,0.432546142578125,-0.4335966110229492,-0.7800339460372925,1.4588779211044312
1706425642823564500,0.436564453125,-0.4252281188964844,-0.7782876491546631,1.366477370262146
1706425642827583000,0.4405830078125,-0.4666128158569336,-0.6658482551574707,1.224439024925232
1706425642831601400,0.444601318359375,-0.5357589721679688,-0.5480976104736328,1.0620489120483398
1706425642835619800,0.448619873046875,-0.6676397323608398,-0.4013638496398926,0.8514539003372192
1706425642839638300,0.45263818359375,-0.7363471984863281,-0.28039073944091797,0.7302505373954773
1706425642843656700,0.45665673828125,-0.7193059921264648,-0.19420480728149414,0.7322718501091003
1706425642847675100,0.460675048828125,-0.7074604034423828,-0.1893765926361084,0.7657859325408936
1706425642851693600,0.464693603515625,-0.6700029373168945,-0.21059036254882812,0.825547993183136
1706425642855712000,0.4687119140625,-0.5577430725097656,-0.24802517890930176,0.8756632208824158
1706425642859730400,0.47273046875,-0.4331045150756836,-0.2778136730194092,0.9445030093193054
1706425642863748900,0.476748779296875,-0.2631092071533203,-0.34511375427246094,1.0695152282714844
1706425642867767300,0.480767333984375,-0.09792137145996094,-0.4116363525390625,1.1956864595413208
1706425642871785700,0.48478564453125,0.053215980529785156,-0.404447078704834,1.2404519319534302
1706425642875804200,0.48880419921875,0.12441444396972656,-0.3600001335144043,1.2310363054275513
1706425642879822600,0.492822509765625,0.16175270080566406,-0.3026561737060547,1.177448034286499
1706425642883841000,0.496841064453125,0.14678668975830078,-0.249070405960083,1.1109042167663574
1706425642887859500,0.500859375,0.11327838897705078,-0.2605443000793457,1.0361640453338623
1706425642891878000,0.5048779296875,0.16313838958740234,-0.2677731513977051,0.9672959446907043
1706425642895896300,0.508896240234375,0.22907352447509766,-0.23520684242248535,0.8610989451408386
1706425642899914800,0.512914794921875,0.2351837158203125,-0.20334076881408691,0.7813458442687988
1706425642903933200,0.51693310546875,0.18455886840820312,-0.20273971557617188,0.767665684223175
1706425642907951600,0.52095166015625,0.1251392364501953,-0.21622562408447266,0.7956926822662354
1706425642911970300,0.52497021484375,0.07116508483886719,-0.22929072380065918,0.7824463844299316
1706425642915988700,0.52898876953125,-0.03899574279785156,-0.2868201732635498,0.7238827347755432
1706425642920007200,0.533007080078125,-0.15974807739257812,-0.395397424697876,0.7511926889419556
1706425642924025900,0.53702587890625,-0.24132442474365234,-0.4928727149963379,0.8403112888336182
1706425642928044500,0.54104443359375,-0.2865886688232422,-0.5368025302886963,0.8227936625480652
1706425642932063200,0.545063232421875,-0.40960216522216797,-0.535027265548706,0.7426766753196716
1706425642936082000,0.54908203125,-0.5669288635253906,-0.5187697410583496,0.7005602121353149
1706425642940100600,0.5531005859375,-0.7274541854858398,-0.4787306785583496,0.6160235404968262
1706425642944119000,0.557119140625,-0.8840932846069336,-0.4649186134338379,0.4709411859512329
1706425642948137700,0.5611376953125,-0.9517173767089844,-0.4507925510406494,0.3491561710834503
1706425642952156400,0.565156494140625,-0.7701702117919922,-0.41280055046081543,0.3212219178676605
1706425642956174800,0.5691748046875,-0.4818611145019531,-0.36542606353759766,0.30224746465682983
1706425642960193000,0.573193115234375,-0.1920785903930664,-0.28987646102905273,0.3125791847705841
1706425642964211000,0.5772109375,0.01868438720703125,-0.25277280807495117,0.30365803837776184
1706425642968229000,0.58122900390625,0.2224292755126953,-0.2536647319793701,0.6258981227874756
1706425642972247300,0.585247314453125,0.1277151107788086,-0.3040440082550049,0.5598020553588867
1706425642976265500,0.589265380859375,0.2662982940673828,-0.017032384872436523,0.2801341116428375
1706425642980284200,0.5932841796875,0.5410909652709961,0.1958327293395996,-0.13064175844192505
1706425642984302800,0.597302734375,0.7469491958618164,0.2495880126953125,-0.05465197563171387
1706425642988321800,0.60132177734375,0.5739822387695312,0.022290468215942383,0.5248957872390747
1706425642992340700,0.6053408203125,0.4528522491455078,-0.16337299346923828,0.8023499250411987
1706425642996359400,0.609359375,0.34981727600097656,-0.2746245861053467,0.7165741920471191
1706425643000378400,0.61337841796875,0.2172384262084961,-0.32408857345581055,0.6294385194778442
1706425643004396500,0.617396484375,0.07667732238769531,-0.30273008346557617,0.6264075040817261
1706425643008414700,0.621414794921875,-0.055240631103515625,-0.26325559616088867,0.530980110168457
1706425643012433000,0.625432861328125,-0.1786813735961914,-0.21275043487548828,0.4745543301105499
1706425643016451000,0.629451171875,-0.2605476379394531,-0.1725633144378662,0.46626120805740356
1706425643020469500,0.633469482421875,-0.3131723403930664,-0.14233970642089844,0.43913447856903076
1706425643024487700,0.63748779296875,-0.32971763610839844,-0.1077265739440918,0.42895182967185974
1706425643028506000,0.641506103515625,-0.3437461853027344,-0.04735398292541504,0.4140172600746155
1706425643032524800,0.64552490234375,-0.35767650604248047,-0.020668983459472656,0.47951656579971313
1706425643036543200,0.649543212890625,-0.39764404296875,0.005967140197753906,0.6031473875045776
1706425643040562000,0.65356201171875,-0.46106719970703125,0.04450798034667969,0.7131433486938477
1706425643044580400,0.657580322265625,-0.5525388717651367,0.07123017311096191,0.8145368099212646
1706425643048599000,0.66159912109375,-0.6314630508422852,0.10756778717041016,0.8625702261924744
1706425643052617500,0.665617431640625,-0.7360029220581055,0.1203162670135498,0.8603665828704834
1706425643056636000,0.669635986328125,-0.8303213119506836,0.12857556343078613,0.8420177102088928
1706425643060654600,0.673654541015625,-0.9525299072265625,0.12998676300048828,0.8316408395767212
1706425643064673300,0.67767333984375,-1.0596857070922852,0.13652753829956055,0.8009893298149109
1706425643068691700,0.681691650390625,-1.1756916046142578,0.14338350296020508,0.738548755645752
1706425643072710400,0.68571044921875,-1.2411375045776367,0.15304088592529297,0.6233043670654297
1706425643076729000,0.68972900390625,-1.2754945755004883,0.15374541282653809,0.47936731576919556
1706425643080747800,0.693747802734375,-1.2861337661743164,0.13606524467468262,0.3352755904197693
1706425643084766200,0.69776611328125,-1.2542638778686523,0.12404274940490723,0.254883348941803
1706425643088784600,0.70178466796875,-1.1849212646484375,0.07000088691711426,0.22784298658370972
1706425643092802800,0.705802734375,-1.1211280822753906,0.016962051391601562,0.2747763395309448
1706425643096821000,0.709821044921875,-1.0580205917358398,-0.03763985633850098,0.32134997844696045
1706425643100839200,0.713839111328125,-0.9503698348999023,-0.0535733699798584,0.33178210258483887
1706425643104857300,0.717857421875,-0.8573455810546875,-0.03610730171203613,0.3036431670188904
1706425643108876000,0.7218759765625,-0.6984825134277344,-0.021372079849243164,0.3606176972389221
1706425643112894500,0.72589453125,-0.5811777114868164,0.00003719329833984375,0.49214500188827515
1706425643116913000,0.729912841796875,-0.5858259201049805,0.006663799285888672,0.5357335805892944
1706425643120931600,0.733931640625,-0.720911979675293,0.022372007369995117,0.2950139045715332
1706425643124950000,0.737949951171875,-0.6028804779052734,0.12787342071533203,0.37305933237075806
1706425643128968700,0.74196875,-0.6780309677124023,-0.03378033638000488,0.5688555836677551
1706425643132987100,0.745987060546875,-0.8307399749755859,-0.06592178344726562,0.34899431467056274
1706425643137005800,0.750005859375,-1.0247840881347656,-0.14035344123840332,0.17255699634552002
1706425643141024300,0.754024169921875,-1.1671876907348633,-0.20665335655212402,0.043455660343170166
1706425643145042700,0.758042724609375,-1.2702903747558594,-0.29555368423461914,-0.03666698932647705
1706425643149061400,0.762061279296875,-1.424649715423584,-0.3783242702484131,-0.10181289911270142
1706425643153079800,0.766079833984375,-1.5585904121398926,-0.41445159912109375,-0.15926924347877502
1706425643157098500,0.770098388671875,-1.6794381141662598,-0.4683225154876709,-0.1730937659740448
1706425643161117000,0.774116943359375,-1.9370622634887695,-0.6035375595092773,-0.25723403692245483
1706425643165136000,0.778135986328125,-2.185563087463379,-0.7759466171264648,-0.2261061668395996
1706425643169154600,0.782154541015625,-2.2134203910827637,-0.894303560256958,-0.38130491971969604
1706425643173173000,0.786173095703125,-1.9698486328125,-0.8472415208816528,-0.7411055564880371
1706425643177191400,0.79019140625,-1.6492438316345215,-0.8922460079193115,-1.1401569843292236
1706425643181209900,0.7942099609375,-1.13901948928833,-0.9596879482269287,-1.713174819946289
1706425643185228300,0.798228271484375,-0.9155702590942383,-0.9438341856002808,-2.1257965564727783
1706425643189246700,0.802246826171875,-1.0028553009033203,-0.6414252519607544,-2.188875198364258
1706425643193265200,0.80626513671875,-1.16795015335083,0.0619654655456543,-2.1971936225891113
1706425643197283600,0.81028369140625,-1.6076622009277344,0.5691032409667969,-1.7610552310943604
1706425643201302000,0.814302001953125,-1.625258445739746,0.5602884292602539,-1.6674023866653442
1706425643205320400,0.818320556640625,-1.199803352355957,0.4739949703216553,-1.9848084449768066
1706425643209339100,0.822339111328125,-0.8434591293334961,0.2604358196258545,-1.9430896043777466
1706425643213357600,0.826357666015625,-0.6530733108520508,0.02953505516052246,-1.5376018285751343
1706425643217376300,0.830376220703125,-0.4033775329589844,-0.16631865501403809,-1.1598198413848877
1706425643221394700,0.834394775390625,-0.3587198257446289,-0.31525635719299316,-0.8692442178726196
1706425643225413400,0.838413330078125,-0.23440933227539062,-0.7554056644439697,-0.47460877895355225
1706425643229431800,0.842431884765625,-0.275909423828125,-1.035001516342163,-0.1906735897064209
1706425643233450200,0.8464501953125,-0.43465328216552734,-1.093090534210205,-0.08706259727478027
1706425643237468700,0.85046875,-0.47679805755615234,-1.1332805156707764,0.031291961669921875
1706425643241487000,0.854487060546875,0.32449913024902344,-1.1829876899719238,0.635317325592041
1706425643245505800,0.858505859375,1.7021055221557617,-1.2335295677185059,1.7724709510803223
1706425643249524200,0.862524169921875,1.732046127319336,-1.2773702144622803,1.7058072090148926
1706425643253542400,0.86654248046875,0.882965087890625,-1.217711091041565,0.8986146450042725
1706425643257560800,0.870560791015625,0.4132528305053711,-1.1205230951309204,0.4418463706970215
1706425643261579300,0.874579345703125,0.4370861053466797,-1.0164616107940674,0.23053336143493652
1706425643265597400,0.878597412109375,0.5081090927124023,-0.9576883316040039,0.0637350082397461
1706425643269615900,0.882615966796875,0.4805717468261719,-0.8770025968551636,-0.2947371006011963
1706425643273634000,0.886634033203125,0.35052013397216797,-0.8047847747802734,-0.8285763263702393
1706425643277652500,0.890652587890625,0.4048299789428711,-0.7330515384674072,-1.1934559345245361
1706425643281671000,0.8946708984375,0.8028717041015625,-0.6563735008239746,-1.2285361289978027
1706425643285689300,0.898689453125,0.8945837020874023,-0.7805342674255371,-0.9933695793151855
1706425643289707800,0.902707763671875,1.6471319198608398,-0.8779160976409912,-0.39766788482666016
1706425643293726500,0.9067265625,2.9223241806030273,-1.0227398872375488,0.43718624114990234
1706425643297745000,0.910744873046875,4.034697532653809,-1.2790677547454834,1.3081636428833008
1706425643301763600,0.914763671875,5.0570478439331055,-1.4958308935165405,1.7745728492736816
1706425643305782000,0.918781982421875,5.927822113037109,-1.7656075954437256,1.721311092376709
1706425643309800400,0.922800537109375,6.672597885131836,-2.244859457015991,1.7754054069519043
1706425643313819100,0.926819091796875,7.407429218292236,-2.710596799850464,2.4932756423950195
1706425643317837600,0.930837646484375,7.684269905090332,-2.865302562713623,1.8836441040039062
1706425643321857300,0.934857177734375,7.601226329803467,-2.8634591102600098,0.8384237289428711
1706425643325865500,0.938865478515625,7.131289005279541,-2.8133420944213867,0.9292669296264648
1706425643329876000,0.9428759765625,6.2902512550354,-2.7679615020751953,2.1235475540161133
1706425643333889800,0.946889892578125,5.26491117477417,-2.715400457382202,3.362380027770996
1706425643337907500,0.950907470703125,4.253732681274414,-2.6080119609832764,3.9343247413635254
1706425643341928700,0.9549287109375,3.1548361778259277,-2.45808482170105,4.033438682556152
1706425643345952800,0.958952880859375,2.1891374588012695,-2.289694309234619,3.9283251762390137
1706425643349978600,0.962978515625,1.3309335708618164,-2.1388466358184814,3.67679500579834
1706425643354004700,0.967004638671875,0.7096519470214844,-2.0174717903137207,3.2530226707458496
1706425643358023000,0.97102294921875,0.2817983627319336,-1.8827707767486572,2.7203927040100098
1706425643362040800,0.975040771484375,-0.02634716033935547,-1.7496118545532227,2.0844554901123047
1706425643366059000,0.97905908203125,-0.08610725402832031,-1.706519365310669,1.1987543106079102
1706425643370077200,0.9830771484375,0.030134201049804688,-1.7675652503967285,0.18698644638061523
1706425643374095600,0.987095703125,0.19461727142333984,-1.863379955291748,-0.8580832481384277
1706425643378114300,0.9911142578125,0.5424962043762207,-2.032100200653076,-1.8039240837097168
1706425643382133200,0.99513330078125,0.8149371147155762,-2.3816657066345215,-2.532700538635254
1706425643386152000,0.99915185546875,0.036346435546875,-2.8005642890930176,-3.3486170768737793
1706425643390170600,1.003170654296875,-12.792085647583008,-3.312007427215576,-6.518747806549072
1706425643394189300,1.007189208984375,-25.321990966796875,-0.9455146789550781,-11.538259506225586
1706425643398208300,1.011208251953125,-25.03838348388672,3.5174176692962646,-12.195455551147461
1706425643402226400,1.015226318359375,-21.482189178466797,6.383704662322998,-11.248470306396484
1706425643406244900,1.019244873046875,-14.966334342956543,7.415493488311768,-11.892166137695312
1706425643410263000,1.023262939453125,-8.427957534790039,7.182405948638916,-12.077919006347656
1706425643414281500,1.027281494140625,-4.247766494750977,5.67982292175293,-8.866076469421387
1706425643418300000,1.0312998046875,-2.308637857437134,3.3588991165161133,-6.146915435791016
1706425643422318300,1.035318359375,-1.7279419898986816,0.8696348667144775,-5.308670997619629
1706425643426336800,1.039336669921875,-1.4180688858032227,-0.11370611190795898,-7.302300453186035
1706425643430355200,1.043355224609375,-0.7355797290802002,-1.3551033735275269,-9.650760650634766
1706425643434373600,1.04737353515625,0.4538843631744385,-1.7256927490234375,-11.57845687866211
1706425643438392000,1.05139208984375,2.4434800148010254,-2.166217088699341,-12.860340118408203
1706425643442410500,1.055410400390625,3.303414821624756,-3.1391758918762207,-13.603415489196777
1706425643446429200,1.05942919921875,3.2928454875946045,-4.347728729248047,-13.546689987182617
1706425643450447600,1.063447509765625,2.805539131164551,-5.654629707336426,-12.581440925598145
1706425643454466300,1.06746630859375,2.8122751712799072,-6.882980823516846,-11.336130142211914
1706425643458484700,1.071484619140625,3.5809788703918457,-7.709596157073975,-9.29570484161377
1706425643462503200,1.075503173828125,4.661654472351074,-8.98491096496582,-5.108129501342773
1706425643466521900,1.07952197265625,3.176220178604126,-10.851371765136719,-5.722029685974121
1706425643470540300,1.083540283203125,3.921706199645996,-11.65357780456543,-9.268289566040039
1706425643474559000,1.08755908203125,6.926845073699951,-11.321587562561035,-11.966693878173828
1706425643478577400,1.091577392578125,9.343856811523438,-10.616579055786133,-13.773259162902832
1706425643482596000,1.09559619140625,11.043597221374512,-9.725688934326172,-15.08888053894043
1706425643486614500,1.099614501953125,11.079245567321777,-8.80097770690918,-15.911653518676758
1706425643490633000,1.103633056640625,9.503543853759766,-7.838740348815918,-16.104949951171875
1706425643494651600,1.107651611328125,7.893557548522949,-7.443195343017578,-15.811834335327148
1706425643498670000,1.111670166015625,4.687474250793457,-7.686734676361084,-14.630523681640625
1706425643502688800,1.115688720703125,1.2871174812316895,-7.738303184509277,-12.558302879333496
1706425643506707200,1.119707275390625,-1.3755159378051758,-7.598063945770264,-11.261514663696289
1706425643510726000,1.123725830078125,-0.727487325668335,-7.718297958374023,-10.529566764831543
1706425643514744300,1.127744384765625,0.573540449142456,-8.216156005859375,-9.321866989135742
1706425643518762800,1.1317626953125,1.931840419769287,-8.442282676696777,-7.735448837280273
1706425643522781200,1.13578125,2.211693048477173,-9.0443754196167,-5.661445140838623
1706425643526799600,1.139799560546875,1.123361587524414,-11.017410278320312,-2.780487537384033
1706425643530818000,1.143818115234375,0.6250607967376709,-11.803482055664062,-1.2816624641418457
1706425643534836500,1.14783642578125,0.10127449035644531,-11.591163635253906,-1.0137252807617188
1706425643538855000,1.15185498046875,-0.696007490158081,-10.989787101745605,-0.7192211151123047
1706425643542873300,1.155873291015625,-1.821228265762329,-10.658196449279785,-0.2595086097717285
1706425643546891800,1.159891845703125,-2.7661802768707275,-10.483346939086914,0.5321841239929199
1706425643550910200,1.16391015625,-3.6246490478515625,-10.283317565917969,1.1797051429748535
1706425643554928600,1.1679287109375,-4.411596298217773,-10.270051956176758,1.594407081604004
1706425643558947000,1.171947021484375,-5.1150360107421875,-10.391807556152344,1.6400485038757324
1706425643562965500,1.175965576171875,-5.818484306335449,-10.634478569030762,1.1907424926757812
1706425643566984000,1.17998388671875,-6.426573753356934,-10.797748565673828,0.6606235504150391
1706425643571002400,1.18400244140625,-6.9569830894470215,-10.77281379699707,0.1786355972290039
1706425643575020800,1.188020751953125,-7.375683784484863,-10.534990310668945,-0.31232690811157227
1706425643579039200,1.192039306640625,-7.520979881286621,-10.291694641113281,-0.4868917465209961
1706425643583057700,1.1960576171875,-7.6442413330078125,-9.946677207946777,-0.4051785469055176
1706425643587076000,1.200076171875,-7.678781032562256,-9.61924934387207,0.09254312515258789
1706425643591094500,1.204094482421875,-7.6492180824279785,-9.395576477050781,1.198720932006836
1706425643595113000,1.208113037109375,-7.573359489440918,-9.369129180908203,2.8760147094726562
1706425643599131400,1.21213134765625,-7.7335004806518555,-9.51874828338623,5.237207412719727
1706425643603149800,1.21614990234375,-7.944551467895508,-9.654253005981445,8.181437492370605
1706425643607168500,1.22016845703125,-8.174766540527344,-9.644144058227539,11.46912956237793
1706425643611187000,1.22418701171875,-8.28785514831543,-9.61323356628418,14.758529663085938
1706425643615205600,1.22820556640625,-8.184438705444336,-9.495235443115234,17.995258331298828
1706425643619224000,1.23222412109375,-7.768336296081543,-9.125836372375488,20.881898880004883
1706425643623242800,1.23624267578125,-7.005810737609863,-8.579973220825195,23.417692184448242
1706425643627261200,1.24026123046875,-5.942215919494629,-8.036888122558594,25.174854278564453
1706425643631279600,1.244279541015625,-5.020699501037598,-7.375942230224609,26.049766540527344
1706425643635298300,1.24829833984375,-3.70096492767334,-6.788928031921387,26.01091957092285
1706425643639316700,1.252316650390625,-2.2936673164367676,-6.1818461418151855,25.509859085083008
1706425643643335400,1.25633544921875,-0.1805415153503418,-5.570635795593262,24.574710845947266
1706425643647353900,1.260353759765625,1.4084415435791016,-4.810973644256592,23.544673919677734
1706425643651372500,1.26437255859375,2.5454294681549072,-3.890244483947754,22.736658096313477
1706425643655391000,1.268390869140625,3.2503581047058105,-2.900968074798584,22.15350341796875
1706425643659409400,1.272409423828125,3.483705520629883,-1.9783687591552734,21.7525577545166
1706425643663428000,1.276427978515625,3.289783477783203,-1.1480956077575684,21.86766815185547
1706425643667446500,1.280446533203125,3.0325777530670166,-0.3070387840270996,22.215534210205078
1706425643671465200,1.28446533203125,2.8911428451538086,0.43480443954467773,22.558883666992188
1706425643675483600,1.288483642578125,3.109272003173828,1.0728583335876465,22.69450569152832
1706425643679502300,1.29250244140625,3.0700855255126953,1.5022516250610352,23.04538345336914
1706425643683520300,1.296520263671875,3.422484874725342,1.8615765571594238,23.235776901245117
1706425643687538400,1.300538330078125,4.596513271331787,2.3076305389404297,23.423370361328125
1706425643691556600,1.304556640625,7.1261372566223145,3.2091686725616455,22.896255493164062
1706425643695574800,1.30857470703125,10.580984115600586,4.507061004638672,21.42266845703125
1706425643699593500,1.312593505859375,11.790543556213379,4.847116947174072,20.154245376586914
1706425643703612000,1.31661181640625,13.714693069458008,5.471465587615967,18.9564266204834
1706425643707630600,1.320630615234375,16.37705421447754,6.346151351928711,17.547611236572266
1706425643711649300,1.324649169921875,19.94523811340332,7.349986553192139,15.607439994812012
1706425643715668000,1.32866796875,25.35106086730957,8.508264541625977,13.404163360595703
1706425643719686700,1.332686767578125,28.368906021118164,10.085314750671387,11.553895950317383
1706425643723705600,1.33670556640625,26.65277099609375,11.620867729187012,10.386375427246094
1706425643727724000,1.34072412109375,23.285715103149414,12.653371810913086,9.208417892456055
1706425643731742200,1.3447421875,18.289159774780273,12.736734390258789,8.517560958862305
1706425643735760400,1.348760498046875,12.179248809814453,12.12240219116211,8.515019416809082
1706425643739778600,1.352778564453125,7.943765640258789,11.146055221557617,8.507637023925781
1706425643743796700,1.356796630859375,9.378029823303223,10.20013427734375,6.974209308624268
1706425643747815400,1.3608154296875,9.896484375,9.009702682495117,6.449751377105713
1706425643751833900,1.364833740234375,9.655702590942383,7.8796234130859375,6.540276527404785
1706425643755852500,1.3688525390625,10.942047119140625,7.025943279266357,5.533641815185547
1706425643759871200,1.372871337890625,11.521245002746582,6.387764930725098,5.001839637756348
1706425643763890000,1.376889892578125,10.89715576171875,5.932494163513184,5.081111907958984
1706425643767908600,1.38090869140625,9.800629615783691,5.582126617431641,4.83525276184082
1706425643771927300,1.38492724609375,8.2974853515625,5.3978166580200195,4.489415168762207
1706425643775945700,1.38894580078125,6.111702919006348,5.201876640319824,4.327810764312744
1706425643779964200,1.392964111328125,4.161798477172852,5.101440906524658,4.110995292663574
1706425643783982600,1.396982666015625,4.1864237785339355,4.986424922943115,3.120682716369629
1706425643788000800,1.401000732421875,5.366272926330566,4.479181289672852,1.2032480239868164
1706425643792019000,1.40501904296875,4.697303771972656,4.050265312194824,0.6045894622802734
1706425643796037000,1.409037109375,3.343222141265869,3.643214702606201,0.09161376953125
1706425643800055600,1.4130556640625,1.6980547904968262,3.2481119632720947,0.4923381805419922
1706425643804074000,1.417073974609375,1.1550666093826294,2.7094404697418213,0.740966796875
1706425643808092700,1.4210927734375,1.0140373706817627,2.2827937602996826,0.5821399688720703
1706425643812111400,1.425111328125,0.26816320419311523,2.0906624794006348,-0.5122604370117188
1706425643816130000,1.429130126953125,-0.33846142888069153,2.0308148860931396,-0.8336353302001953
1706425643820149000,1.43314892578125,-1.0227380990982056,1.6497063636779785,-1.1292219161987305
1706425643824167700,1.437167724609375,-2.0282764434814453,1.1376137733459473,-1.5085973739624023
1706425643828186400,1.441186279296875,-2.0556418895721436,0.6961030960083008,-2.615854263305664
1706425643832204000,1.4452041015625,-1.2151659727096558,0.29979801177978516,-3.8821849822998047
1706425643836222000,1.449221923828125,-1.22623872756958,0.4978189468383789,-3.910311698913574
1706425643840240000,1.453240234375,-1.9414329528808594,0.7768001556396484,-3.7622785568237305
1706425643844258300,1.45725830078125,-1.6070228815078735,0.8524904251098633,-3.894585609436035
1706425643848277000,1.461277099609375,-1.8316223621368408,0.5821356773376465,-3.726181983947754
1706425643852295700,1.465295654296875,-2.0046958923339844,0.07427406311035156,-3.8932371139526367
1706425643856314400,1.469314453125,-2.3509392738342285,-0.4241623878479004,-4.416090488433838
1706425643860333300,1.473333251953125,-2.378227949142456,-0.5450701713562012,-4.584212779998779
1706425643864352500,1.4773525390625,-2.840829849243164,-0.4953322410583496,-4.145764350891113
1706425643868371200,1.48137109375,-2.8853931427001953,-0.5983362197875977,-3.7763166427612305
1706425643872389600,1.4853896484375,-3.234153985977173,-0.6011114120483398,-3.1488914489746094
1706425643876408000,1.489407958984375,-3.0334832668304443,-0.7333250045776367,-3.0333051681518555
1706425643880426200,1.49342626953125,-3.1665055751800537,-0.7224397659301758,-2.6805715560913086
1706425643884444400,1.4974443359375,-3.1410481929779053,-0.7285966873168945,-2.8745036125183105
1706425643888462800,1.501462890625,-2.8050479888916016,-0.6077680587768555,-3.178403854370117
1706425643892481300,1.505481201171875,-2.5130295753479004,-0.41989850997924805,-3.138124942779541
1706425643896499700,1.509499755859375,-2.1209774017333984,-0.365753173828125,-3.2920703887939453
1706425643900518100,1.51351806640625,-1.8286702632904053,-0.2851390838623047,-3.396242618560791
1706425643904536800,1.517536865234375,-1.4007617235183716,-0.27588891983032227,-3.5582237243652344
1706425643908555300,1.52155517578125,-1.3244198560714722,-0.23027420043945312,-3.5748414993286133
1706425643912573700,1.52557373046875,-1.3573609590530396,-0.2918548583984375,-3.644838809967041
1706425643916592400,1.52959228515625,-1.0049127340316772,-0.4816727638244629,-4.095160007476807
1706425643920610800,1.53361083984375,-0.8774149417877197,-0.9445338249206543,-4.730912208557129
1706425643924629500,1.53762939453125,-1.0943498611450195,-1.015451431274414,-5.083245277404785
1706425643928648000,1.54164794921875,-0.9980905055999756,-1.5741090774536133,-5.608911037445068
1706425643932666600,1.54566650390625,-1.2202874422073364,-1.8952035903930664,-5.392495155334473
1706425643936685000,1.54968505859375,-1.1412193775177002,-2.8278746604919434,-4.961914539337158
1706425643940703500,1.553703369140625,-1.2406154870986938,-3.568525791168213,-4.466280937194824
1706425643944722200,1.55772216796875,-1.2552634477615356,-3.633573055267334,-4.269156455993652
1706425643948740600,1.56174072265625,-1.0157136917114258,-4.343694686889648,-4.049739360809326
1706425643952759300,1.56575927734375,-0.7270897626876831,-5.201052665710449,-3.634251594543457
1706425643956777700,1.56977783203125,-0.8240349292755127,-5.781221389770508,-2.8806371688842773
1706425643960796400,1.57379638671875,-1.2528668642044067,-6.4141435623168945,-1.2608227729797363
1706425643964814800,1.57781494140625,-1.6260554790496826,-7.040006637573242,0.229888916015625
1706425643968833300,1.581833251953125,-1.9235057830810547,-7.510394096374512,1.3158855438232422
1706425643972852000,1.58585205078125,-1.874513030052185,-7.3157429695129395,1.7778406143188477
1706425643976870400,1.589870361328125,-1.4300743341445923,-6.818605422973633,1.6509361267089844
1706425643980888800,1.593888916015625,-0.7698074579238892,-6.248418807983398,1.3958587646484375
1706425643984907300,1.5979072265625,-0.10731109976768494,-5.611363410949707,1.3314218521118164
1706425643988925700,1.60192578125,0.4424460828304291,-4.91852331161499,1.3980512619018555
1706425643992944000,1.605944091796875,0.9799391031265259,-3.803183078765869,1.097085952758789
1706425643996962600,1.609962646484375,1.3034404516220093,-2.8352627754211426,0.5169353485107422
1706425644000981000,1.61398095703125,1.78412926197052,-2.1484131813049316,0.8396415710449219
1706425644004999400,1.61799951171875,2.286968231201172,-1.450016975402832,1.4849720001220703
1706425644009017900,1.622017822265625,2.6567115783691406,-0.8780121803283691,1.585428237915039
1706425644013036300,1.626036376953125,2.7372665405273438,-0.49869585037231445,1.8497962951660156
1706425644017054700,1.6300546875,2.543523073196411,-0.3690938949584961,2.258363723754883
1706425644021073200,1.6340732421875,2.2675576210021973,-0.22387361526489258,2.569127082824707
1706425644025091800,1.638091796875,1.9432238340377808,-0.07309246063232422,2.891956329345703
1706425644029110300,1.6421103515625,1.6047446727752686,0.10208797454833984,3.1048126220703125
1706425644033129000,1.64612890625,1.0922622680664062,0.16033649444580078,3.315298080444336
1706425644037147400,1.6501474609375,0.4045760929584503,0.26189422607421875,3.3393726348876953
1706425644041166000,1.654166015625,-0.45842084288597107,0.2658987045288086,3.2731409072875977
1706425644045184500,1.6581845703125,-1.6180834770202637,0.07484960556030273,3.291205406188965
1706425644049203000,1.662202880859375,-2.703245162963867,-0.23415422439575195,3.7181291580200195
1706425644053221600,1.6662216796875,-3.5120949745178223,-0.5105795860290527,4.54056453704834
1706425644057240000,1.670239990234375,-4.256692886352539,-0.7214183807373047,5.520626068115234
1706425644061258500,1.674258544921875,-4.7321319580078125,-1.1155095100402832,6.772329330444336
1706425644065276700,1.678276611328125,-4.617807388305664,-1.6186037063598633,7.456218719482422
1706425644069294800,1.682294921875,-3.744710922241211,-1.8898983001708984,5.699488639831543
1706425644073313300,1.686313232421875,-2.599581480026245,-2.066387176513672,3.9662322998046875
1706425644077331500,1.69033154296875,-1.5457823276519775,-2.2766857147216797,3.5923328399658203
1706425644081350000,1.694349853515625,-0.7385603189468384,-2.3346328735351562,3.326937675476074
1706425644085368300,1.698368408203125,-0.23251280188560486,-2.480403423309326,4.017446517944336
1706425644089386800,1.70238671875,0.2461891919374466,-2.670905590057373,5.2203216552734375
1706425644093405400,1.706405517578125,0.2533670663833618,-2.6829118728637695,5.559843063354492
1706425644097424000,1.710423828125,0.10244753956794739,-2.4147443771362305,5.28188419342041
1706425644101442600,1.714442626953125,-0.16793878376483917,-2.046234607696533,4.8494110107421875
1706425644105461000,1.7184609375,-0.17048121988773346,-1.6604900360107422,3.761699676513672
1706425644109479700,1.722479736328125,0.006437420845031738,-1.4290556907653809,2.962139129638672
1706425644113498400,1.726498291015625,0.12212640047073364,-1.2311906814575195,1.5521564483642578
1706425644117516800,1.730516845703125,0.47725772857666016,-1.0611085891723633,0.10252761840820312
1706425644121535500,1.734535400390625,0.7296374440193176,-0.9039435386657715,-1.2788691520690918
1706425644125554200,1.73855419921875,0.6265919208526611,-1.1221380233764648,-2.4507875442504883
1706425644129572900,1.74257275390625,0.7833890318870544,-1.454118251800537,-3.4470672607421875
1706425644133591600,1.746591552734375,0.6656755208969116,-1.7936210632324219,-4.532591819763184
1706425644137610000,1.75060986328125,0.5354976058006287,-2.269235610961914,-5.247872352600098
1706425644141628400,1.75462841796875,0.2835742235183716,-2.979124069213867,-5.0229620933532715
1706425644145646800,1.758646728515625,0.11608421802520752,-3.283374786376953,-5.284780979156494
1706425644149665300,1.762665283203125,-0.009703516960144043,-3.4532246589660645,-5.611410140991211
1706425644153683500,1.766683349609375,-0.19420218467712402,-3.398460865020752,-5.816246509552002
1706425644157702000,1.770701904296875,-0.4563490152359009,-3.3421287536621094,-6.174319267272949
1706425644161720300,1.77472021484375,0.04652440547943115,-3.023381233215332,-7.0193586349487305
1706425644165738500,1.778738525390625,-0.19743573665618896,-2.5475220680236816,-7.506012439727783
1706425644169757000,1.7827568359375,-0.10368216037750244,-1.9936003684997559,-7.680058002471924
1706425644173775000,1.786775146484375,0.6329324245452881,-1.1988868713378906,-7.787643909454346
1706425644177793500,1.79079345703125,-0.2138381004333496,-0.6089439392089844,-6.696436882019043
1706425644181812000,1.79481201171875,-1.5366804599761963,-0.505577564239502,-4.753287315368652
1706425644185830700,1.79883056640625,-1.420074224472046,-0.7685256004333496,-3.0145678520202637
1706425644189849000,1.80284912109375,-1.9665005207061768,-0.8231821060180664,-2.3072867393493652
1706425644193867800,1.80686767578125,-1.6197683811187744,0.18232107162475586,-2.7042574882507324
1706425644197886200,1.81088623046875,-0.3764169216156006,1.431431770324707,-3.4478344917297363
1706425644201905000,1.81490478515625,-1.0828166007995605,2.2648611068725586,-4.009086608886719
1706425644205923300,1.81892333984375,-1.4243996143341064,3.0161898136138916,-4.255113124847412
1706425644209941800,1.822941650390625,-0.22914958000183105,3.9490604400634766,-4.423331260681152
1706425644213960700,1.826960693359375,1.0871065855026245,4.932794094085693,-4.5824761390686035
1706425644217980000,1.83097998046875,2.003978729248047,5.592873573303223,-4.163130760192871
1706425644221998000,1.834998046875,2.781120777130127,6.056623458862305,-3.147782564163208
1706425644226016300,1.839016357421875,2.3295040130615234,6.233025074005127,-1.801633358001709
1706425644230034400,1.843034423828125,2.1027371883392334,6.630755424499512,-0.3896207809448242
1706425644234052600,1.847052490234375,2.2963972091674805,7.1197404861450195,1.0993385314941406
1706425644238071000,1.851071044921875,2.7828712463378906,7.642339706420898,2.4018969535827637
1706425644242089500,1.85508935546875,3.153272867202759,8.13400650024414,3.4349493980407715
1706425644246108000,1.85910791015625,3.429173231124878,8.568717956542969,4.416524410247803
1706425644250126600,1.863126708984375,3.787674903869629,8.958747863769531,5.389857769012451
1706425644254145000,1.86714501953125,4.276467323303223,9.363914489746094,6.679912567138672
1706425644258163700,1.871163818359375,4.64911413192749,9.53995418548584,8.26867389678955
1706425644262182100,1.87518212890625,4.4563446044921875,9.307364463806152,9.533120155334473
1706425644266200800,1.879200927734375,3.128229856491089,8.949311256408691,7.878995895385742
1706425644270219300,1.88321923828125,2.9459896087646484,8.75932502746582,6.466464042663574
1706425644274237700,1.88723779296875,3.5754330158233643,8.829124450683594,5.56071662902832
1706425644278256400,1.89125634765625,4.463841438293457,9.156834602355957,4.695181369781494
1706425644282274800,1.89527490234375,5.20426082611084,9.506059646606445,3.9399728775024414
1706425644286293500,1.89929345703125,5.717772483825684,9.767187118530273,3.5938987731933594
1706425644290312000,1.90331201171875,5.865624904632568,9.844690322875977,3.309243679046631
1706425644294330600,1.90733056640625,5.956724166870117,9.855703353881836,2.973377227783203
1706425644298349000,1.91134912109375,5.760010719299316,9.967281341552734,1.931931495666504
1706425644302367500,1.915367431640625,5.811967849731445,10.045978546142578,0.8330168724060059
1706425644306386200,1.91938623046875,5.650139331817627,10.233306884765625,-0.047876834869384766
1706425644310404600,1.923404541015625,4.736724853515625,10.13017463684082,-0.378603458404541
1706425644314423300,1.92742333984375,3.955843448638916,9.502904891967773,-1.143059253692627
1706425644318441700,1.931441650390625,2.804486036300659,8.858182907104492,-2.098349094390869
1706425644322460400,1.93546044921875,2.0666720867156982,7.935314178466797,-2.0326452255249023
1706425644326478800,1.939478759765625,1.2376152276992798,7.205190658569336,-1.6784987449645996
1706425644330497300,1.943497314453125,0.9285597801208496,6.182316780090332,-1.9699463844299316
1706425644334516000,1.947515869140625,2.124091148376465,4.368988990783691,-2.6965394020080566
1706425644338534400,1.951534423828125,1.8500651121139526,2.8910422325134277,-2.680746555328369
1706425644342552800,1.955552734375,1.7753283977508545,3.129767417907715,-4.040034294128418
1706425644346571500,1.959571533203125,1.1504112482070923,2.4051573276519775,-5.163211822509766
1706425644350590000,1.96358984375,1.3737491369247437,1.5899834632873535,-7.223227024078369
1706425644354608400,1.9676083984375,0.6965919733047485,2.6343655586242676,-9.483868598937988
1706425644358627000,1.971626953125,-1.0811386108398438,3.2670326232910156,-7.621590614318848
1706425644362645500,1.9756455078125,-2.5747010707855225,3.619655132293701,-3.6351077556610107
1706425644366663700,1.97966357421875,-3.4317877292633057,3.2208433151245117,-0.30066347122192383
1706425644370681900,1.983681884765625,-3.4307541847229004,2.486215114593506,1.1529145240783691
1706425644374700000,1.987699951171875,-2.9141359329223633,2.0541868209838867,0.7703919410705566
1706425644378718200,1.99171826171875,-1.906449556350708,0.8162088394165039,0.12526655197143555
1706425644382736600,1.995736572265625,-1.498847246170044,-0.3163919448852539,-0.5770301818847656
1706425644386755000,1.999755126953125,-1.7236047983169556,-1.6401538848876953,-0.03566408157348633
1706425644390773800,2.003773681640625,-1.1464104652404785,-2.962200164794922,0.17998933792114258
1706425644394792200,2.007792236328125,-0.527385950088501,-4.445713996887207,-0.04243898391723633
1706425644398810600,2.011810546875,0.2960622310638428,-6.1195268630981445,-0.07154703140258789
1706425644402829300,2.015829345703125,1.161306619644165,-7.491927623748779,0.9419445991516113
1706425644406848000,2.019847900390625,1.993911862373352,-8.91671085357666,2.20936918258667
1706425644410866700,2.02386669921875,2.5222432613372803,-10.462505340576172,3.726468563079834
1706425644414885400,2.027885498046875,2.201786518096924,-11.87747859954834,4.975672245025635
1706425644418904000,2.031904052734375,1.9926176071166992,-13.124969482421875,5.99222993850708
1706425644422922500,2.035922607421875,1.7707891464233398,-14.294065475463867,6.868164539337158
1706425644426941000,2.03994091796875,1.4401130676269531,-15.441787719726562,7.120020389556885
1706425644430959400,2.04395947265625,0.6279017925262451,-15.641398429870605,6.5118255615234375
1706425644434977800,2.047977783203125,0.4600653648376465,-14.90412712097168,5.168676853179932
1706425644438996200,2.051996337890625,-0.048850059509277344,-14.491376876831055,3.8125834465026855
1706425644443014700,2.0560146484375,-0.9034440517425537,-13.875777244567871,2.122683048248291
1706425644447033300,2.060033447265625,-1.5437579154968262,-13.466108322143555,0.47851085662841797
1706425644451051800,2.0640517578125,-2.0115270614624023,-12.602649688720703,-0.8925638198852539
1706425644455070200,2.0680703125,-2.194730281829834,-12.072456359863281,-1.2348194122314453
1706425644459088600,2.072088623046875,-2.1555652618408203,-11.445201873779297,-1.3370075225830078
1706425644463107000,2.076107177734375,-1.7879817485809326,-10.633289337158203,-1.7832555770874023
1706425644467125500,2.08012548828125,-1.1771470308303833,-9.862390518188477,-1.8823833465576172
1706425644471144000,2.08414404296875,-0.6049904823303223,-9.020400047302246,-2.13529109954834
1706425644475162400,2.088162353515625,-0.10007214546203613,-8.107656478881836,-2.4223532676696777
1706425644479180800,2.092180908203125,0.17752432823181152,-7.284750938415527,-2.531026840209961
1706425644483199200,2.09619921875,0.10927987098693848,-6.393853664398193,-2.6723365783691406
1706425644487218000,2.100218017578125,-0.12478435039520264,-5.626276969909668,-2.729029655456543
1706425644491236400,2.104236328125,-0.42989957332611084,-4.866879463195801,-2.68168306350708
1706425644495254800,2.1082548828125,-0.7430349588394165,-4.122631549835205,-2.785630226135254
1706425644499273500,2.1122734375,-0.7716848850250244,-3.438595771789551,-2.9752469062805176
1706425644503292200,2.116292236328125,-0.7161433696746826,-2.8786697387695312,-3.3809125423431396
1706425644507310600,2.120310546875,-0.6276931762695312,-2.3726677894592285,-3.7908682823181152
1706425644511329300,2.124329345703125,-0.6746371984481812,-2.035172939300537,-4.006217956542969
1706425644515348000,2.128347900390625,-0.806733250617981,-1.7514667510986328,-4.077622890472412
1706425644519366700,2.13236669921875,-1.0081541538238525,-1.3809118270874023,-4.101619243621826
1706425644523385000,2.136385009765625,-1.497732400894165,-0.8618555068969727,-4.085788249969482
1706425644527403500,2.140403564453125,-1.7595055103302002,-0.15200519561767578,-4.126418113708496
1706425644531422000,2.144421875,-2.188938617706299,0.36743640899658203,-3.9838385581970215
1706425644535440400,2.1484404296875,-2.767763614654541,0.7805414199829102,-3.6856751441955566
1706425644539458800,2.152458740234375,-2.856433391571045,0.9847221374511719,-4.021190643310547
1706425644543477200,2.156477294921875,-2.9778056144714355,1.1547532081604004,-3.974503517150879
1706425644547495700,2.16049560546875,-3.104576826095581,1.548325538635254,-3.6007604598999023
1706425644551514000,2.16451416015625,-3.1088342666625977,1.930023193359375,-3.407285690307617
1706425644555532800,2.16853271484375,-3.2339229583740234,2.486043930053711,-3.4791836738586426
1706425644559551200,2.17255126953125,-3.408881664276123,3.2085509300231934,-3.5971908569335938
1706425644563569700,2.176569580078125,-3.4028618335723877,3.947991371154785,-2.9661290645599365
1706425644567588400,2.18058837890625,-3.11960506439209,4.236717224121094,-1.623793601989746
1706425644571606800,2.184606689453125,-2.8848495483398438,4.268462181091309,-0.9430065155029297
1706425644575625500,2.18862548828125,-2.8026535511016846,4.165400505065918,-0.522071361541748
1706425644579644000,2.192643798828125,-2.8360252380371094,3.961516857147217,-0.42174577713012695
1706425644583662300,2.196662353515625,-2.9419028759002686,3.8845176696777344,-0.45679283142089844
1706425644587680800,2.2006806640625,-3.1358792781829834,3.903355360031128,-0.5218887329101562
1706425644591699200,2.20469921875,-3.289595127105713,3.903413772583008,-0.4499330520629883
1706425644595717600,2.208717529296875,-3.410980463027954,3.8873257637023926,-0.32068872451782227
1706425644599736000,2.212736083984375,-3.2955009937286377,3.8049423694610596,-0.08956241607666016
1706425644603754800,2.216754638671875,-3.0981507301330566,3.749656915664673,0.13277769088745117
1706425644607773200,2.220773193359375,-2.843709707260132,3.5850911140441895,0.46489810943603516
1706425644611791600,2.22479150390625,-2.634385347366333,3.251668930053711,0.8367691040039062
1706425644615810000,2.22881005859375,-2.4522342681884766,3.0246968269348145,1.3601174354553223
1706425644619828500,2.232828369140625,-2.2433021068573,2.4044480323791504,1.7759943008422852
1706425644623847000,2.236846923828125,-2.012399673461914,1.8155531883239746,2.3653507232666016
1706425644627865300,2.240865234375,-1.5863882303237915,1.0846829414367676,1.9076061248779297
1706425644631883800,2.2448837890625,-0.6018621921539307,-0.37361955642700195,-0.5875372886657715
1706425644635902200,2.248902099609375,-0.5117545127868652,-0.5838360786437988,-0.9685382843017578
1706425644639920600,2.252920654296875,-0.41189706325531006,-0.22934293746948242,0.36340856552124023
1706425644643939000,2.25693896484375,0.14928960800170898,0.12813901901245117,0.30473852157592773
1706425644647957500,2.26095751953125,1.0636131763458252,0.6869797706604004,0.3786745071411133
1706425644651976000,2.264975830078125,1.5961025953292847,1.3407692909240723,0.35817432403564453
1706425644655994400,2.268994384765625,1.745648741722107,1.8374285697937012,0.7815194129943848
1706425644660012800,2.2730126953125,1.6851387023925781,2.063723564147949,1.4399528503417969
1706425644664031200,2.27703125,1.4103950262069702,2.180935859680176,2.3472681045532227
1706425644668049700,2.281049560546875,0.7037574052810669,2.511906623840332,3.685732841491699
1706425644672068000,2.285068115234375,0.6008745431900024,2.5994367599487305,4.135217189788818
1706425644676086500,2.28908642578125,0.9809906482696533,2.204178810119629,3.422567367553711
1706425644680105000,2.29310498046875,1.9990217685699463,1.7956714630126953,2.9605484008789062
1706425644684123400,2.297123291015625,3.19215989112854,1.5627946853637695,2.4662418365478516
1706425644688142000,2.30114208984375,3.9624884128570557,1.2737460136413574,1.8266615867614746
1706425644692160500,2.305160400390625,4.320819854736328,0.9534945487976074,0.8842568397521973
1706425644696179200,2.30917919921875,4.292120933532715,0.8419895172119141,-0.023753643035888672
1706425644700197600,2.31319775390625,4.31760835647583,0.8218374252319336,-0.4997704029083252
1706425644704216000,2.317216064453125,4.28623104095459,0.8565073013305664,-0.7364809513092041
1706425644708234800,2.32123486328125,4.3765177726745605,0.6845645904541016,-0.6852281093597412
1706425644712253200,2.325253173828125,4.553405284881592,0.7978963851928711,-0.32684779167175293
1706425644716271900,2.32927197265625,4.775328636169434,0.9388618469238281,0.16811156272888184
1706425644720290300,2.333290283203125,4.90973424911499,1.2377805709838867,0.6174218654632568
1706425644724309000,2.33730908203125,4.673797130584717,1.6288256645202637,1.0280532836914062
1706425644728327400,2.341327392578125,4.382910251617432,1.977208137512207,1.328249216079712
1706425644732345900,2.345345947265625,3.94285249710083,2.3733959197998047,1.6211872100830078
1706425644736364500,2.349364501953125,3.4056143760681152,2.7859740257263184,1.871495246887207
1706425644740383000,2.353383056640625,2.8137242794036865,3.2340025901794434,1.845961570739746
1706425644744401700,2.357401611328125,2.2788400650024414,3.4880104064941406,1.9580870866775513
1706425644748420000,2.361420166015625,1.9739612340927124,3.7613449096679688,2.051168918609619
1706425644752438800,2.365438720703125,1.737189769744873,4.073358535766602,2.036118507385254
1706425644756457200,2.369457275390625,1.3658138513565063,4.359759330749512,2.0919926166534424
1706425644760476000,2.373475830078125,0.9109145402908325,4.675951957702637,2.067819356918335
1706425644764494600,2.37749462890625,0.7333953976631165,5.019925117492676,2.0140881538391113
1706425644768513000,2.381512939453125,0.5330065488815308,5.3203558921813965,1.931126356124878
1706425644772531500,2.385531494140625,0.35389965772628784,5.6805830001831055,1.7073814868927002
1706425644776550000,2.3895498046875,0.6484226584434509,5.943114280700684,1.6858316659927368
1706425644780568300,2.393568359375,1.1259671449661255,6.099106788635254,1.712953805923462
1706425644784586800,2.397586669921875,1.0024622678756714,5.857504844665527,1.8194292783737183
1706425644788605200,2.401605224609375,0.2599983215332031,4.246233940124512,2.422354221343994
1706425644792623600,2.40562353515625,-0.05475062131881714,1.832615852355957,3.1219875812530518
1706425644796642000,2.40964208984375,0.055114924907684326,-0.3863840103149414,4.2408599853515625
1706425644800660500,2.413660400390625,0.37596002221107483,-2.5655136108398438,5.0341081619262695
1706425644804679000,2.417678955078125,0.2456788420677185,-5.100708961486816,5.662156105041504
1706425644808697300,2.421697265625,0.1404290795326233,-7.653148651123047,5.921779632568359
1706425644812715800,2.4257158203125,0.15013349056243896,-10.195554733276367,6.172767639160156
1706425644816734200,2.429734130859375,-0.13269203901290894,-12.564330101013184,6.573003768920898
1706425644820752600,2.433752685546875,-0.9794846177101135,-14.775579452514648,6.858991622924805
1706425644824771000,2.43777099609375,-1.8857276439666748,-16.859970092773438,7.205837249755859
1706425644828789500,2.44178955078125,-3.3007638454437256,-19.180862426757812,6.684358596801758
1706425644832808200,2.44580810546875,-5.022127628326416,-20.85580062866211,5.227205276489258
1706425644836826600,2.44982666015625,-6.202904224395752,-22.231117248535156,3.387967109680176
1706425644840845300,2.45384521484375,-5.905963897705078,-23.04790496826172,1.0725737810134888
1706425644844863700,2.45786376953125,-4.379907608032227,-22.852020263671875,-2.076003074645996
1706425644848882200,2.461882080078125,-2.220170497894287,-21.386564254760742,-5.64326810836792
1706425644852900900,2.46590087890625,0.3298710584640503,-19.11223602294922,-8.750112533569336
1706425644856919300,2.469919189453125,2.3518903255462646,-16.217910766601562,-10.43507194519043
1706425644860938000,2.47393798828125,3.4246671199798584,-13.123409271240234,-10.827444076538086
1706425644864956400,2.477956298828125,3.5921192169189453,-10.056163787841797,-10.291267395019531
1706425644868975000,2.48197509765625,3.0416057109832764,-7.154531478881836,-9.089715957641602
1706425644872993500,2.48599365234375,2.186624050140381,-4.649774551391602,-7.661898612976074
1706425644877012000,2.490011962890625,1.2272166013717651,-2.416478157043457,-6.188189506530762
1706425644881030700,2.49403076171875,0.38446155190467834,-0.5446443557739258,-4.977843284606934
1706425644885049000,2.498049072265625,-0.1461125910282135,1.0671186447143555,-3.9275150299072266
1706425644889067800,2.50206787109375,-0.3953360319137573,2.465005874633789,-3.148798942565918
1706425644893086200,2.506086181640625,-0.4977397620677948,3.620978355407715,-2.5542657375335693
1706425644897105000,2.51010498046875,-0.39449307322502136,4.4280500411987305,-2.1541237831115723
1706425644901123300,2.514123291015625,-0.18973767757415771,5.202648162841797,-1.8794167041778564
1706425644905141800,2.518141845703125,-0.1333768367767334,5.887594223022461,-1.7186529636383057
1706425644909160200,2.52216015625,-0.2157888114452362,6.342021465301514,-1.5667461156845093
1706425644913178600,2.5261787109375,-0.22171363234519958,6.662062168121338,-1.5149734020233154
1706425644917197000,2.530197021484375,-0.25200513005256653,6.960371971130371,-1.532204031944275
1706425644921215500,2.534215576171875,-0.3998264968395233,7.193918228149414,-1.634934663772583
1706425644925234000,2.53823388671875,-0.5931615233421326,7.355571269989014,-1.887199878692627
1706425644929252400,2.54225244140625,-0.7767603397369385,7.442922592163086,-2.1994612216949463
1706425644933270800,2.546270751953125,-0.9577088356018066,7.477468490600586,-2.506143569946289
1706425644937289200,2.550289306640625,-1.1766984462738037,7.2438883781433105,-2.9017746448516846
1706425644941307600,2.5543076171875,-1.543413519859314,6.785495758056641,-3.2033519744873047
1706425644945326000,2.558326171875,-1.9207922220230103,5.978217124938965,-3.211977005004883
1706425644949344500,2.562344482421875,-2.294114828109741,4.994852066040039,-2.914013385772705
1706425644953363000,2.566363037109375,-2.5579283237457275,4.053441047668457,-2.4686074256896973
1706425644957381400,2.57038134765625,-2.6118764877319336,3.1948013305664062,-1.7985162734985352
1706425644961399800,2.57439990234375,-2.5259785652160645,2.622347831726074,-1.010982871055603
1706425644965419300,2.578419189453125,-2.487337589263916,2.240201950073242,-0.3349034786224365
1706425644969437200,2.582437255859375,-2.7823288440704346,1.7491717338562012,-0.1865764856338501
1706425644973454800,2.586454833984375,-3.179875135421753,1.0776948928833008,-0.3499704599380493
1706425644977472800,2.59047265625,-3.3729662895202637,0.39829254150390625,-0.5546356439590454
1706425644981491200,2.5944912109375,-3.4312076568603516,-0.2387685775756836,-0.9681870937347412
1706425644985509600,2.598509521484375,-3.354727268218994,-0.9174337387084961,-1.7113168239593506
1706425644989528300,2.6025283203125,-3.2201459407806396,-1.3964805603027344,-2.436920642852783
1706425644993547300,2.60654736328125,-3.041900873184204,-1.8057498931884766,-2.753049850463867
1706425644997566200,2.610566162109375,-3.001948833465576,-2.258002281188965,-2.850236415863037
1706425645001585200,2.614585205078125,-2.860691785812378,-2.6959495544433594,-2.914372444152832
1706425645005604000,2.61860400390625,-2.7284419536590576,-3.0408401489257812,-2.7820992469787598
1706425645009622500,2.62262255859375,-2.6050620079040527,-3.278535842895508,-2.5013933181762695
1706425645013641000,2.626640869140625,-2.32806134223938,-3.42362117767334,-2.1130013465881348
1706425645017659400,2.630659423828125,-1.996338129043579,-3.425975799560547,-1.538643717765808
1706425645021677800,2.634677734375,-1.7468276023864746,-3.3407182693481445,-0.8488510847091675
1706425645025696000,2.638696044921875,-1.4770368337631226,-3.1080665588378906,-0.2527883052825928
1706425645029714400,2.64271435546875,-1.1540746688842773,-2.7855443954467773,0.25137078762054443
1706425645033732600,2.646732666015625,-0.7690569162368774,-2.389906883239746,0.7085082530975342
1706425645037751000,2.6507509765625,-0.37074214220046997,-1.9761219024658203,1.1108133792877197
1706425645041769500,2.65476953125,0.028211474418640137,-1.5560178756713867,1.5271066427230835
1706425645045787600,2.65878759765625,0.38404810428619385,-1.1724748611450195,1.9208110570907593
1706425645049806000,2.66280615234375,0.7009733319282532,-0.8443021774291992,2.2861380577087402
1706425645053824800,2.66682470703125,0.9834704995155334,-0.5090436935424805,2.5387520790100098
1706425645057843200,2.67084326171875,1.2551556825637817,-0.1521759033203125,2.699716806411743
1706425645061862000,2.67486181640625,1.537318229675293,0.17136383056640625,2.7306647300720215
1706425645065880300,2.67888037109375,1.793919324874878,0.5095129013061523,2.705916404724121
1706425645069899000,2.68289892578125,2.0033063888549805,0.7976970672607422,2.5921616554260254
1706425645073917400,2.68691748046875,2.2037227153778076,1.0073156356811523,2.499617099761963
1706425645077935900,2.690935791015625,2.332857847213745,1.1815385818481445,2.3662054538726807
1706425645081954600,2.69495458984375,2.4528846740722656,1.2510643005371094,2.1681623458862305
1706425645085973000,2.698972900390625,2.5136568546295166,1.2567081451416016,1.9534269571304321
1706425645089991700,2.70299169921875,2.46514630317688,1.200887680053711,1.6601536273956299
1706425645094010000,2.707010009765625,2.3460750579833984,1.0955924987792969,1.3675528764724731
1706425645098028800,2.71102880859375,2.149841070175171,0.957550048828125,1.0279911756515503
1706425645102047200,2.715047119140625,1.8914166688919067,0.8034458160400391,0.6920493841171265
1706425645106065700,2.719065673828125,1.6359889507293701,0.6284208297729492,0.39345860481262207
1706425645110084400,2.72308447265625,1.3387819528579712,0.4276247024536133,0.08455824851989746
1706425645114102800,2.727102783203125,1.0577032566070557,0.2512674331665039,-0.18673467636108398
1706425645118121500,2.73112158203125,0.790708065032959,0.07769012451171875,-0.4368772506713867
1706425645122140000,2.735139892578125,0.5383883118629456,-0.08837127685546875,-0.696973443031311
1706425645126158600,2.73915869140625,0.3248111605644226,-0.23740577697753906,-0.9261748790740967
1706425645130177000,2.743177001953125,0.12397295236587524,-0.35512542724609375,-1.136398196220398
1706425645134195500,2.747195556640625,-0.040138691663742065,-0.4559812545776367,-1.3465238809585571
1706425645138214100,2.751214111328125,-0.18414634466171265,-0.5328388214111328,-1.5373631715774536
1706425645142232300,2.755232421875,-0.30574819445610046,-0.5833587646484375,-1.735131025314331
1706425645146250800,2.759250732421875,-0.39294329285621643,-0.6291427612304688,-1.889386773109436
1706425645150269200,2.763269287109375,-0.4673468768596649,-0.6439037322998047,-2.0407180786132812
1706425645154287400,2.767287353515625,-0.5076050758361816,-0.6324777603149414,-2.191438674926758
1706425645158305800,2.771305908203125,-0.5640140771865845,-0.6068754196166992,-2.3199267387390137
1706425645162324500,2.775324462890625,-0.5936315059661865,-0.5671215057373047,-2.418966293334961
1706425645166343000,2.779343017578125,-0.6323738098144531,-0.5036745071411133,-2.502899646759033
1706425645170361600,2.783361572265625,-0.6492418646812439,-0.4261341094970703,-2.5813140869140625
1706425645174380300,2.78738037109375,-0.6753972172737122,-0.34169673919677734,-2.623075485229492
1706425645178398700,2.791398681640625,-0.6964643597602844,-0.24797630310058594,-2.654571533203125
1706425645182417400,2.79541748046875,-0.7244369983673096,-0.14258861541748047,-2.651921272277832
1706425645186436000,2.79943603515625,-0.7281812429428101,-0.04226970672607422,-2.6272456645965576
1706425645190454800,2.803454833984375,-0.7507967352867126,0.07692718505859375,-2.6022346019744873
1706425645194473200,2.80747314453125,-0.7634768486022949,0.17911911010742188,-2.53635835647583
1706425645198491400,2.811491455078125,-0.7709879875183105,0.2858848571777344,-2.4872350692749023
1706425645202509800,2.815509765625,-0.7637203931808472,0.39243125915527344,-2.4308667182922363
1706425645206528000,2.819528076171875,-0.7511659860610962,0.4940032958984375,-2.3890039920806885
1706425645210546400,2.82354638671875,-0.7213268280029297,0.5858364105224609,-2.342515707015991
1706425645214564900,2.82756494140625,-0.6671091318130493,0.656010627746582,-2.298732280731201
1706425645218583000,2.8315830078125,-0.600563108921051,0.692591667175293,-2.2719221115112305
1706425645222601500,2.8356015625,-0.507377564907074,0.7386932373046875,-2.242990493774414
1706425645226620000,2.839619873046875,-0.39732837677001953,0.7488422393798828,-2.1974875926971436
1706425645230638600,2.843638671875,-0.2728881239891052,0.7087545394897461,-2.15463924407959
1706425645234657000,2.847656982421875,-0.12236704677343369,0.6711111068725586,-2.0975987911224365
1706425645238675500,2.851675537109375,0.04200323671102524,0.6000452041625977,-2.0241050720214844
1706425645242694100,2.855694091796875,0.22248031198978424,0.5434503555297852,-1.9581493139266968
1706425645246712800,2.859712890625,0.40671420097351074,0.4606466293334961,-1.9021615982055664
1706425645250731500,2.8637314453125,0.62079918384552,0.38515567779541016,-1.82504403591156
1706425645254750200,2.867750244140625,0.862076461315155,0.30979442596435547,-1.7269039154052734
1706425645258769000,2.871768798828125,1.0894749164581299,0.24414443969726562,-1.6055642366409302
1706425645262787300,2.875787353515625,1.3099596500396729,0.21211528778076172,-1.5281574726104736
1706425645266806000,2.879805908203125,1.4562039375305176,0.20647621154785156,-1.430123209953308
1706425645270824200,2.88382421875,1.5761030912399292,0.22717571258544922,-1.359415054321289
1706425645274842400,2.88784228515625,1.633676290512085,0.27893638610839844,-1.3159942626953125
1706425645278860300,2.8918603515625,1.6242306232452393,0.3545055389404297,-1.2638942003250122
1706425645282878500,2.89587841796875,1.5765726566314697,0.4227104187011719,-1.2054070234298706
1706425645286897000,2.89989697265625,1.510072112083435,0.49072933197021484,-1.1334607601165771
1706425645290915600,2.90391552734375,1.3963122367858887,0.5394315719604492,-1.0434470176696777
1706425645294934300,2.907934326171875,1.2572228908538818,0.5999374389648438,-0.9665745496749878
1706425645298953000,2.911952880859375,1.1098383665084839,0.6698207855224609,-0.8932579755783081
1706425645302971600,2.9159716796875,0.9879403114318848,0.7371034622192383,-0.7971847057342529
1706425645306990600,2.919990478515625,0.8224353790283203,0.8017950057983398,-0.697611927986145
1706425645311009300,2.92400927734375,0.5635199546813965,0.8136835098266602,-0.5468053817749023
1706425645315027700,2.92802783203125,0.3767300248146057,0.8637762069702148,-0.38095808029174805
1706425645319046000,2.9320458984375,0.2980361580848694,0.8515787124633789,-0.10937952995300293
1706425645323064000,2.93606396484375,0.32972389459609985,0.8489809036254883,0.12624645233154297
1706425645327082200,2.940082275390625,0.4642331600189209,0.8439779281616211,0.33310627937316895
1706425645331100400,2.944100341796875,0.6605868339538574,0.8533153533935547,0.561178982257843
1706425645335119000,2.948119140625,0.7797730565071106,0.7956094741821289,0.7553460001945496
1706425645339137800,2.9521376953125,0.9317678213119507,0.7498407363891602,0.87022864818573
1706425645343156700,2.95615673828125,1.0232079029083252,0.6442050933837891,0.9632208943367004
1706425645347175700,2.96017578125,1.0304127931594849,0.4763660430908203,1.1539520025253296
1706425645351194400,2.9641943359375,0.9488648772239685,0.21770858764648438,1.3773751258850098
1706425645355212800,2.968212890625,0.788493812084198,0.05254650115966797,1.358095645904541
1706425645359231200,2.972231201171875,0.5091452598571777,-0.15564632415771484,1.3241770267486572
1706425645363249700,2.976249755859375,0.22125887870788574,-0.31835460662841797,1.2043890953063965
1706425645367268000,2.98026806640625,-0.09402704238891602,-0.4858980178833008,1.0877366065979004
1706425645371286800,2.984286865234375,-0.3624035120010376,-0.6702671051025391,1.0225952863693237
1706425645375305200,2.98830517578125,-0.7081740498542786,-0.8475265502929688,0.9278583526611328
1706425645379323600,2.99232373046875,-1.0975780487060547,-0.9411344528198242,0.7631894946098328
1706425645383342000,2.996342041015625,-1.4657639265060425,-1.0492687225341797,0.5744296908378601
1706425645387360500,3.000360595703125,-1.8319908380508423,-1.157567024230957,0.4792329668998718
1706425645391379000,3.00437890625,-2.193927049636841,-1.1870899200439453,0.33177393674850464
1706425645395397400,3.0083974609375,-2.5731077194213867,-1.1881685256958008,0.2400577962398529
1706425645399415800,3.012415771484375,-2.866670608520508,-1.134511947631836,0.1825382113456726
1706425645403434200,3.016434326171875,-3.1706674098968506,-1.0214252471923828,0.018299996852874756
1706425645407452700,3.02045263671875,-3.4204492568969727,-0.8657045364379883,-0.08733968436717987
1706425645411471400,3.024471435546875,-3.6496098041534424,-0.7391481399536133,-0.089021697640419
1706425645415489800,3.02848974609375,-3.922697067260742,-0.6249361038208008,-0.04920746758580208
1706425645419508500,3.032508544921875,-4.170121669769287,-0.4488515853881836,-0.03513919562101364
1706425645423527400,3.03652734375,-4.336549282073975,-0.2539710998535156,-0.008664131164550781
1706425645427545900,3.0405458984375,-4.457635879516602,-0.06178092956542969,0.018034934997558594
1706425645431564000,3.04456396484375,-4.478127479553223,0.1277751922607422,0.01616227626800537
1706425645435582500,3.04858251953125,-4.3932576179504395,0.3195219039916992,-0.09082037210464478
1706425645439601000,3.052600830078125,-4.179065704345703,0.4895782470703125,-0.23089991509914398
1706425645443619000,3.056619140625,-3.7831273078918457,0.7001943588256836,-0.48744603991508484
1706425645447637500,3.060637451171875,-3.198512077331543,0.9106855392456055,-0.8335913419723511
1706425645451655700,3.06465576171875,-2.4520058631896973,1.1641273498535156,-1.2950553894042969
1706425645455674000,3.068674072265625,-1.5749485492706299,1.4078960418701172,-1.775395393371582
1706425645459692500,3.072692626953125,-0.6059921383857727,1.6563835144042969,-2.2790584564208984
1706425645463711000,3.0767109375,0.5429213047027588,1.833028793334961,-2.7963144779205322
1706425645467729700,3.080729736328125,1.7178895473480225,1.9617981910705566,-3.255443811416626
1706425645471748000,3.084748046875,2.717503070831299,2.0092220306396484,-3.6446762084960938
1706425645475766800,3.088766845703125,3.3646697998046875,2.0280017852783203,-3.9284400939941406
1706425645479785500,3.092785400390625,3.6622190475463867,2.006229877471924,-4.082982063293457
1706425645483804200,3.09680419921875,3.7516486644744873,1.9846038818359375,-4.1470465660095215
1706425645487822800,3.10082275390625,3.783717155456543,1.979832649230957,-4.163984775543213
1706425645491841500,3.104841552734375,3.82244873046875,1.9463310241699219,-4.146071910858154
1706425645495860000,3.10885986328125,3.9268569946289062,1.8145971298217773,-4.04130220413208
1706425645499878700,3.112878662109375,3.981322765350342,1.8597207069396973,-4.146846771240234
1706425645503897000,3.11689697265625,3.9421706199645996,1.815805435180664,-4.220930099487305
1706425645507915500,3.12091552734375,3.6823525428771973,1.8168716430664062,-4.230119228363037
1706425645511934000,3.124933837890625,3.202073574066162,1.8245410919189453,-4.212937355041504
1706425645515952400,3.128952392578125,2.4828732013702393,1.8627901077270508,-4.123899459838867
1706425645519970800,3.132970703125,1.5638186931610107,1.9148979187011719,-3.9535112380981445
1706425645523989000,3.136989013671875,0.5082896947860718,2.0647292137145996,-3.723292350769043
1706425645528007200,3.141007080078125,-0.5700763463973999,2.2405757904052734,-3.40681791305542
1706425645532025600,3.145025634765625,-1.6892756223678589,2.3971376419067383,-3.016178607940674
1706425645536043800,3.149043701171875,-2.7164413928985596,2.5777430534362793,-2.5680274963378906
1706425645540062200,3.153062255859375,-3.6171793937683105,2.7059922218322754,-2.024170398712158
1706425645544081000,3.157080810546875,-4.278505802154541,2.7988710403442383,-1.5854253768920898
1706425645548099600,3.161099609375,-4.6690874099731445,2.830219268798828,-1.0984889268875122
1706425645552118300,3.1651181640625,-4.781957626342773,2.8120956420898438,-0.6185511946678162
1706425645556137000,3.169136962890625,-4.567593574523926,2.76363468170166,-0.2485191822052002
1706425645560155400,3.1731552734375,-4.098605155944824,2.627340316772461,0.21957135200500488
1706425645564174000,3.177174072265625,-3.4429564476013184,2.477339267730713,0.5341817140579224
1706425645568192800,3.18119287109375,-2.651998519897461,2.2895050048828125,0.857731819152832
1706425645572211500,3.18521142578125,-1.7434594631195068,2.080465316772461,1.0273619890213013
1706425645576230100,3.189230224609375,-0.7878572940826416,1.8572254180908203,0.9808272123336792
1706425645580248000,3.193248046875,0.053525328636169434,1.6220674514770508,0.9147317409515381
1706425645584266200,3.197266357421875,0.8635962009429932,1.3820600509643555,0.7072283029556274
1706425645588284400,3.201284423828125,1.6485886573791504,1.1490802764892578,0.48801517486572266
1706425645592302600,3.205302490234375,2.464888095855713,0.8990592956542969,0.3695908784866333
1706425645596321300,3.2093212890625,3.471557378768921,0.6677455902099609,0.27528584003448486
1706425645600340000,3.213340087890625,4.650280475616455,0.3974647521972656,0.38181793689727783
1706425645604358700,3.217358642578125,6.028215408325195,0.09990501403808594,0.6212526559829712
1706425645608377300,3.22137744140625,7.445899963378906,-0.3209991455078125,1.119187355041504
1706425645612395800,3.225395751953125,8.625163078308105,-0.8152990341186523,1.8019543886184692
1706425645616414500,3.22941455078125,9.317407608032227,-1.4336614608764648,2.8826117515563965
1706425645620433200,3.23343310546875,9.141731262207031,-2.116570472717285,4.327112674713135
1706425645624451800,3.237451904296875,7.444351673126221,-2.8067636489868164,5.6779656410217285
1706425645628470500,3.241470458984375,3.9354429244995117,-3.3340368270874023,6.340897560119629
1706425645632489000,3.245489013671875,-0.6159423589706421,-3.702362060546875,6.112061977386475
1706425645636507400,3.24950732421875,-4.791932582855225,-4.023102760314941,5.667206764221191
1706425645640525800,3.25352587890625,-7.881965637207031,-4.280993461608887,4.92759895324707
1706425645644544300,3.257544189453125,-9.343958854675293,-4.655117034912109,4.424150466918945
1706425645648562700,3.261562744140625,-8.64822769165039,-5.033117294311523,3.844010829925537
1706425645652581000,3.2655810546875,-5.5381178855896,-5.387150764465332,3.5699307918548584
1706425645656599600,3.269599609375,-0.8642639517784119,-5.307188034057617,3.0933806896209717
1706425645660618000,3.273617919921875,3.1478958129882812,-4.517282485961914,1.7191128730773926
1706425645664636400,3.277636474609375,5.0691752433776855,-3.1332931518554688,0.4579946994781494
1706425645668654800,3.28165478515625,5.409520149230957,-1.6819257736206055,-0.13244247436523438
1706425645672673300,3.28567333984375,4.837593078613281,-0.3061494827270508,-0.5124368667602539
1706425645676691700,3.289691650390625,3.5368757247924805,0.9974794387817383,-0.7373840808868408
1706425645680710400,3.29371044921875,1.9656295776367188,1.9859905242919922,-0.9871909618377686
1706425645684728800,3.297728759765625,0.39084410667419434,2.885683059692383,-1.217057228088379
1706425645688747300,3.301747314453125,-0.508574366569519,3.481997489929199,-1.2402229309082031
1706425645692766000,3.305765869140625,-0.8797639608383179,3.765727996826172,-0.9892404079437256
1706425645696784400,3.309784423828125,-1.0488368272781372,3.8541860580444336,-0.6008708477020264
1706425645700803000,3.313802978515625,-1.2124557495117188,3.8332953453063965,-0.1687917709350586
1706425645704821500,3.317821533203125,-1.4787847995758057,3.738563060760498,0.24939465522766113
1706425645708840200,3.321840087890625,-1.7650601863861084,3.641409397125244,0.5130164623260498
1706425645712858600,3.325858642578125,-1.824493646621704,3.570127487182617,0.5755634307861328
1706425645716876500,3.32987646484375,-1.7076585292816162,3.5817999839782715,0.477283239364624
1706425645720894700,3.333894775390625,-1.4150755405426025,3.645033836364746,0.2397158145904541
1706425645724913000,3.337912841796875,-1.0981355905532837,3.7141733169555664,-0.0603632926940918
1706425645728931300,3.341931396484375,-0.7548445463180542,3.791698455810547,-0.4247403144836426
1706425645732950000,3.345949951171875,-0.6532574892044067,3.8082809448242188,-0.6640629768371582
1706425645736968700,3.34996875,-0.7714378833770752,3.799983024597168,-0.9265618324279785
1706425645740987400,3.3539873046875,-0.9796380996704102,3.750232219696045,-1.0445117950439453
1706425645745006300,3.35800634765625,-1.1102885007858276,3.647125244140625,-1.0921604633331299
1706425645749025000,3.36202490234375,-1.1564364433288574,3.452259063720703,-1.0435094833374023
1706425645753043700,3.366043701171875,-1.2167319059371948,3.2778568267822266,-0.9037718772888184
1706425645757062400,3.3700625,-1.5024151802062988,3.1378393173217773,-0.8001205921173096
1706425645761080800,3.374080810546875,-2.097733497619629,3.0582966804504395,-0.6341848373413086
1706425645765099300,3.378099365234375,-2.455115556716919,3.053462028503418,-0.6544287204742432
1706425645769117700,3.38211767578125,-2.3096799850463867,3.0156283378601074,-0.41999197006225586
1706425645773136100,3.38613623046875,-1.7176361083984375,2.923006057739258,0.0973978042602539
1706425645777154600,3.390154541015625,-0.8902366161346436,2.794572353363037,0.602963924407959
1706425645781173000,3.394173095703125,-0.20324134826660156,2.5440540313720703,1.149160385131836
1706425645785191400,3.39819140625,0.20750093460083008,2.1765522956848145,1.6094412803649902
1706425645789209900,3.4022099609375,0.13677620887756348,1.7667102813720703,1.9797306060791016
1706425645793228300,3.406228271484375,-0.27843260765075684,1.4970135688781738,2.148719310760498
1706425645797246700,3.410246826171875,-0.39923810958862305,1.0857415199279785,2.007906436920166
1706425645801265200,3.41426513671875,-0.631667971611023,0.7731766700744629,1.7292566299438477
1706425645805283600,3.41828369140625,-0.6227016448974609,0.5742945671081543,1.450674057006836
1706425645809302000,3.422302001953125,-0.4141956567764282,0.4462547302246094,1.4311695098876953
1706425645813320400,3.426320556640625,-0.056879520416259766,0.32443952560424805,1.3856701850891113
1706425645817339000,3.4303388671875,0.35174083709716797,0.35233545303344727,1.5744047164916992
1706425645821357300,3.434357421875,0.7618207931518555,0.14922285079956055,1.5228629112243652
1706425645825375700,3.438375732421875,0.7766644954681396,0.2273387908935547,1.4415102005004883
1706425645829394200,3.442394287109375,0.6219501495361328,0.2465195655822754,1.4090123176574707
1706425645833412600,3.44641259765625,0.38168883323669434,0.17308616638183594,1.2047653198242188
1706425645837431000,3.45043115234375,0.07319426536560059,-0.05288839340209961,0.8691248893737793
1706425645841449500,3.454449462890625,-0.28354501724243164,-0.31191349029541016,0.5187387466430664
1706425645845468000,3.458468017578125,-0.5464410781860352,-0.544440746307373,0.17441272735595703
1706425645849486600,3.462486572265625,-0.6335195302963257,-0.7315249443054199,-0.056711673736572266
1706425645853505000,3.466505126953125,-0.6281330585479736,-0.8591036796569824,-0.311676025390625
1706425645857523700,3.470523681640625,-0.7264158725738525,-1.0064668655395508,-0.39462804794311523
1706425645861542100,3.474542236328125,-0.7970888614654541,-1.128373622894287,-0.6096978187561035
1706425645865560800,3.478560791015625,-0.9884493350982666,-1.2991409301757812,-0.5142421722412109
1706425645869579300,3.482579345703125,-1.3314104080200195,-1.3707060813903809,-0.30276966094970703
1706425645873597700,3.48659765625,-1.5628728866577148,-1.4437766075134277,-0.11413288116455078
1706425645877616400,3.490616455078125,-1.6399637460708618,-1.4202818870544434,0.025440216064453125
1706425645881634800,3.494634765625,-1.6488583087921143,-1.3385767936706543,0.008395195007324219
1706425645885653500,3.498653564453125,-1.5727055072784424,-1.2174434661865234,-0.0019855499267578125
1706425645889672000,3.502671875,-1.169834852218628,-1.0758676528930664,0.027963638305664062
1706425645893690600,3.506690673828125,-0.522188663482666,-0.8754515647888184,0.017088890075683594
1706425645897709000,3.510708984375,0.13981246948242188,-0.6853780746459961,-0.05325126647949219
1706425645901727500,3.5147275390625,0.6405191421508789,-0.4002552032470703,-0.34995269775390625
1706425645905746200,3.51874609375,0.7514631748199463,-0.21588706970214844,-0.5965991020202637
1706425645909764600,3.5227646484375,0.8903951644897461,0.011577606201171875,-0.9384994506835938
1706425645913783300,3.526783203125,1.0877203941345215,0.17005491256713867,-1.121337890625
1706425645917801700,3.5308017578125,1.1253998279571533,0.27387285232543945,-0.9563431739807129
1706425645921820400,3.5348203125,1.0785298347473145,0.37789249420166016,-0.7722353935241699
1706425645925838800,3.5388388671875,0.7950177192687988,0.36468935012817383,-0.4475679397583008
1706425645929857300,3.542857177734375,0.5657351016998291,0.37525081634521484,-0.02389812469482422
1706425645933876000,3.5468759765625,0.470447301864624,0.4334688186645508,0.16333484649658203
1706425645937894400,3.550894287109375,0.5742297172546387,0.44834089279174805,0.36773109436035156
1706425645941913000,3.5549130859375,0.7127470970153809,0.4463624954223633,0.4645252227783203
1706425645945931500,3.558931640625,0.7221217155456543,0.42533111572265625,0.44385814666748047
1706425645949950200,3.5629501953125,0.5543735027313232,0.3113069534301758,0.46880578994750977
1706425645953968600,3.56696875,0.6016130447387695,0.10439682006835938,0.35524940490722656
1706425645957987000,3.570987060546875,0.7408707141876221,-0.16904592514038086,0.27582311630249023
1706425645962005500,3.575005615234375,0.6915891170501709,-0.4924802780151367,0.2855072021484375
1706425645966024400,3.5790244140625,0.45810651779174805,-0.8899555206298828,0.34606361389160156
1706425645970041900,3.583041748046875,0.21717429161071777,-1.2467846870422363,0.35221433639526367
1706425645974059500,3.5870595703125,-0.1098639965057373,-1.594109058380127,0.37329816818237305
1706425645978077200,3.5910771484375,-0.3003058433532715,-1.8098435401916504,0.4475884437561035
1706425645982095400,3.595095458984375,-0.37528395652770996,-1.9347867965698242,0.4097170829772949
1706425645986111500,3.599111572265625,-0.6054544448852539,-1.8397345542907715,0.24322271347045898
1706425645990125600,3.60312548828125,-0.5568804740905762,-1.6779861450195312,-0.11792230606079102
1706425645994141400,3.607141357421875,-0.36055684089660645,-1.5141844749450684,-0.6488795280456543
1706425645998159400,3.611159423828125,-0.2158825397491455,-1.3939552307128906,-0.9425144195556641
1706425646002179300,3.615179443359375,-0.22811579704284668,-1.2310218811035156,-1.0947132110595703
1706425646006200600,3.61920068359375,-0.16118335723876953,-1.0182547569274902,-0.8574352264404297
1706425646010223000,3.62322314453125,-0.10391616821289062,-0.8083786964416504,-0.3278522491455078
1706425646014246000,3.627245849609375,-0.09858059883117676,-0.5846490859985352,-0.01499795913696289
1706425646018264300,3.631264404296875,-0.5039212703704834,-0.37288522720336914,0.0900869369506836
1706425646022283000,3.635282958984375,-0.7065646648406982,-0.20609474182128906,-0.021888256072998047
1706425646026301400,3.639301513671875,-0.6106398105621338,0.05019378662109375,-0.18320417404174805
1706425646030319900,3.64331982421875,-0.23398685455322266,0.21437978744506836,-0.27132368087768555
1706425646034338300,3.64733837890625,0.04836392402648926,0.2194991111755371,-0.024979591369628906
1706425646038357000,3.65135693359375,0.13783788681030273,0.11503100395202637,0.4294776916503906
1706425646042375400,3.65537548828125,0.24249005317687988,-0.13343191146850586,0.7240800857543945
1706425646046393900,3.659393798828125,0.32353711128234863,-0.406658411026001,1.0695199966430664
1706425646050412300,3.663412353515625,0.16994404792785645,-0.6711437702178955,1.4361801147460938
1706425646054430700,3.6674306640625,-0.16735339164733887,-0.7898564338684082,1.5766544342041016
1706425646058449200,3.67144921875,-0.5670313835144043,-0.8241300582885742,1.7781286239624023
1706425646062467600,3.675467529296875,-0.7326428890228271,-0.9076459407806396,2.016911506652832
1706425646066486000,3.679486083984375,-0.5410740375518799,-1.0119709968566895,2.164059638977051
1706425646070504700,3.683504638671875,-0.2953372001647949,-1.099308967590332,2.2056198120117188
1706425646074523100,3.687523193359375,-0.13977837562561035,-1.0953319072723389,2.12777042388916
1706425646078541800,3.691541748046875,-0.02193474769592285,-1.0620112419128418,2.0218372344970703
1706425646082560300,3.695560302734375,0.01276254653930664,-1.046654462814331,1.938307762145996
1706425646086579000,3.699578857421875,-0.1597919464111328,-1.1471545696258545,1.9680185317993164
1706425646090597400,3.703597412109375,-0.4053671360015869,-1.2748143672943115,2.027070999145508
1706425646094615800,3.70761572265625,-0.47605109214782715,-1.3796501159667969,2.338221549987793
1706425646098634500,3.711634521484375,-0.17967820167541504,-1.4452166557312012,2.6145381927490234
1706425646102653000,3.71565283203125,0.14709162712097168,-1.5148303508758545,2.9713354110717773
1706425646106671400,3.71967138671875,0.33353090286254883,-1.5718727111816406,3.2915544509887695
1706425646110689800,3.723689697265625,0.28873300552368164,-1.5539932250976562,3.379153251647949
1706425646114708200,3.727708251953125,0.09768152236938477,-1.4729363918304443,3.2532272338867188
1706425646118726700,3.7317265625,-0.21471118927001953,-1.2925851345062256,3.064497947692871
1706425646122745000,3.7357451171875,-0.4536430835723877,-1.012753963470459,2.822312355041504
1706425646126763500,3.739763427734375,-0.5466666221618652,-0.6596744060516357,2.5766868591308594
1706425646130782000,3.743781982421875,-0.47172999382019043,-0.27407264709472656,2.3679752349853516
1706425646134800400,3.74780029296875,-0.30034637451171875,0.07943844795227051,2.174372673034668
1706425646138818800,3.75181884765625,-0.15210199356079102,0.3099846839904785,1.9287710189819336
1706425646142837200,3.755837158203125,-0.03905439376831055,0.45592713356018066,1.6814775466918945
1706425646146855700,3.759855712890625,-0.023617982864379883,0.5172674655914307,1.389479637145996
1706425646150874000,3.7638740234375,0.0049130916595458984,0.48496270179748535,0.921107292175293
1706425646154892500,3.767892578125,-0.06529045104980469,0.547728419303894,1.2341842651367188
1706425646158911000,3.771910888671875,0.04954934120178223,0.5711486339569092,1.1270484924316406
1706425646162929400,3.775929443359375,0.2727344036102295,0.5936170816421509,0.9662322998046875
1706425646166947800,3.77994775390625,0.5162980556488037,0.6054419279098511,1.0792303085327148
1706425646170966300,3.78396630859375,0.7763524055480957,0.6110303401947021,1.3479585647583008
1706425646174985000,3.78798486328125,0.9554455280303955,0.5955331325531006,1.6330385208129883
1706425646179003400,3.79200341796875,0.973625659942627,0.525501012802124,1.4888896942138672
1706425646183021800,3.796021728515625,0.820995569229126,0.520172119140625,2.1746063232421875
1706425646187040300,3.800040283203125,0.31656885147094727,0.6123087406158447,2.4408769607543945
1706425646191059000,3.804058837890625,0.02204108238220215,0.6705164909362793,2.1379995346069336
1706425646195077400,3.808077392578125,-0.10120987892150879,0.7097718715667725,1.549168586730957
1706425646199096000,3.812095947265625,-0.14350414276123047,0.7259992361068726,1.0334224700927734
1706425646203114500,3.816114501953125,0.09307432174682617,0.7105374336242676,0.38191890716552734
1706425646207133200,3.82013330078125,0.2539842128753662,0.9072839021682739,0.561375617980957
1706425646211151600,3.824151611328125,0.5299887657165527,1.1936300992965698,0.4800090789794922
1706425646215170000,3.828170166015625,0.8018362522125244,1.2679917812347412,0.33887672424316406
1706425646219188700,3.832188720703125,1.0862836837768555,1.4701497554779053,0.25283145904541016
1706425646223207200,3.836207275390625,1.1336963176727295,1.694533109664917,0.21971988677978516
1706425646227225900,3.840225830078125,0.9660942554473877,1.768803358078003,0.17477703094482422
1706425646231244300,3.844244384765625,0.8519861698150635,1.8055213689804077,0.2542457580566406
1706425646235263000,3.848262939453125,0.6063477993011475,1.9480559825897217,0.2237720489501953
1706425646239281400,3.852281494140625,0.3656644821166992,1.995232105255127,0.23900985717773438
1706425646243299800,3.8562998046875,0.2981283664703369,1.8728333711624146,0.1775369644165039
1706425646247318500,3.860318603515625,0.20223116874694824,1.9756782054901123,0.1352519989013672
1706425646251337000,3.8643369140625,0.08750057220458984,2.0401713848114014,0.12410354614257812
1706425646255355600,3.868355712890625,-0.014513731002807617,2.001826286315918,0.06014060974121094
1706425646259374000,3.8723740234375,-0.005742311477661133,2.071312427520752,0.008032798767089844
1706425646263392800,3.876392822265625,-0.11116576194763184,2.1217687129974365,0.03713703155517578
1706425646267411200,3.8804111328125,-0.10793662071228027,2.1938209533691406,-0.0010833740234375
1706425646271429600,3.8844296875,-0.04656720161437988,2.302001714706421,-0.051423072814941406
1706425646275448300,3.8884482421875,0.02968907356262207,2.357717514038086,0.012981414794921875
1706425646279466800,3.892466796875,0.2045881748199463,2.4376204013824463,0.06756401062011719
1706425646283485400,3.8964853515625,0.3869040012359619,2.5751266479492188,0.1698293685913086
1706425646287504000,3.90050390625,0.5982251167297363,2.6480214595794678,0.28377819061279297
1706425646291522300,3.904522216796875,0.8793001174926758,2.71370005607605,0.4476127624511719
1706425646295540700,3.908540771484375,0.983640193939209,2.7384581565856934,0.721038818359375
1706425646299559200,3.91255908203125,1.0913760662078857,2.7196059226989746,1.074955940246582
1706425646303577600,3.91657763671875,1.0321452617645264,2.7024950981140137,1.3037004470825195
1706425646307596000,3.920595947265625,0.8224020004272461,2.636761426925659,1.5009346008300781
1706425646311614500,3.924614501953125,0.562269926071167,2.5153729915618896,1.6430244445800781
1706425646315633000,3.9286328125,0.30403661727905273,2.386422634124756,1.5627641677856445
1706425646319651300,3.9326513671875,0.09997248649597168,2.2121052742004395,1.2917518615722656
1706425646323669800,3.936669677734375,-0.018820524215698242,2.031162738800049,0.9259538650512695
1706425646327688200,3.940688232421875,-0.061786651611328125,1.8585901260375977,0.5707416534423828
1706425646331706600,3.94470654296875,-0.061991214752197266,1.7068521976470947,0.32404136657714844
1706425646335725000,3.94872509765625,-0.026192903518676758,1.583261489868164,0.13289546966552734
1706425646339743500,3.952743408203125,0.08180880546569824,1.4712904691696167,-0.0076732635498046875
1706425646343762000,3.956761962890625,0.16634917259216309,1.389941692352295,-0.0714864730834961
1706425646347780600,3.960780517578125,0.24414873123168945,1.3008254766464233,-0.12083911895751953
1706425646351799000,3.964799072265625,0.27421116828918457,1.2205630540847778,-0.1412830352783203
1706425646355817700,3.968817626953125,0.26084280014038086,1.1656956672668457,-0.20204734802246094
1706425646359836200,3.972836181640625,0.17959260940551758,1.0953764915466309,-0.26937007904052734
1706425646363854800,3.976854736328125,0.08259081840515137,0.9974753260612488,-0.3310728073120117
1706425646367873300,3.980873291015625,-0.023393869400024414,0.9219503998756409,-0.3894233703613281
1706425646371891700,3.9848916015625,-0.1504063606262207,0.8255088925361633,-0.42049217224121094
1706425646375910400,3.988910400390625,-0.25988268852233887,0.7485909461975098,-0.4220590591430664
1706425646379928800,3.9929287109375,-0.38970303535461426,0.6815016269683838,-0.4374094009399414
1706425646383947500,3.996947509765625,-0.48180603981018066,0.6385953426361084,-0.4045696258544922
1706425646387966000,4.000966064453125,-0.5524005889892578,0.581363320350647,-0.36214447021484375
1706425646391984600,4.004984619140625,-0.5986175537109375,0.5624548196792603,-0.31752681732177734
1706425646396003000,4.009003173828125,-0.5913100242614746,0.49809008836746216,-0.2685213088989258
1706425646400021500,4.013021484375,-0.5424003601074219,0.42168301343917847,-0.23433303833007812
1706425646404040200,4.017040283203125,-0.48769140243530273,0.3331233263015747,-0.1504192352294922
1706425646408058600,4.02105859375,-0.4009418487548828,0.21552497148513794,-0.0981760025024414
1706425646412077000,4.0250771484375,-0.3372795581817627,0.1095128059387207,-0.0679769515991211
1706425646416095500,4.029095458984375,-0.2873203754425049,0.010271787643432617,-0.01664447784423828
1706425646420114200,4.0331142578125,-0.2606053352355957,-0.0726163387298584,0.012729644775390625
1706425646424132600,4.037132568359375,-0.23120570182800293,-0.10568094253540039,0.027524948120117188
1706425646428151000,4.041151123046875,-0.1992201805114746,-0.11993324756622314,0.023029327392578125
1706425646432169500,4.04516943359375,-0.17199182510375977,-0.11298477649688721,-0.010231971740722656
1706425646436188000,4.04918798828125,-0.12803101539611816,-0.08952009677886963,-0.04347705841064453
1706425646440205300,4.053205322265625,-0.06744980812072754,-0.07100510597229004,-0.07187366485595703
1706425646444224000,4.05722412109375,-0.007227659225463867,-0.04772961139678955,-0.12642669677734375
1706425646448242400,4.061242431640625,0.07654762268066406,-0.05561947822570801,-0.13054656982421875
1706425646452261000,4.06526123046875,0.162489652633667,-0.10648787021636963,-0.0747842788696289
1706425646456279600,4.069279541015625,0.14315176010131836,-0.13360726833343506,0.059803009033203125
1706425646460298000,4.073298095703125,0.11173772811889648,-0.10825568437576294,0.12009716033935547
1706425646464316700,4.077316650390625,0.05134725570678711,-0.037692129611968994,0.11582756042480469
1706425646468335000,4.081335205078125,-0.014449119567871094,0.006498515605926514,0.08793258666992188
1706425646472353800,4.085353759765625,-0.025743961334228516,-0.011434495449066162,0.09862136840820312
1706425646476372200,4.089372314453125,-0.14757180213928223,-0.0315890908241272,0.21478843688964844
1706425646480391000,4.093390869140625,-0.23677754402160645,-0.020271658897399902,0.28820323944091797
1706425646484409300,4.097409423828125,-0.25989580154418945,-0.05642712116241455,0.3380594253540039
1706425646488427800,4.101427734375,-0.2600419521331787,-0.14461970329284668,0.43377017974853516
1706425646492446500,4.105446533203125,-0.24402761459350586,-0.2944120168685913,0.5320501327514648
1706425646496465000,4.10946484375,-0.2544219493865967,-0.431632936000824,0.6470317840576172
1706425646500483600,4.113483642578125,-0.27892398834228516,-0.5348300337791443,0.7594242095947266
1706425646504502000,4.117501953125,-0.3076961040496826,-0.5922359228134155,0.8188705444335938
1706425646508520700,4.121520751953125,-0.31447577476501465,-0.6206430792808533,0.8637399673461914
1706425646512539100,4.1255390625,-0.3017916679382324,-0.6535893082618713,0.8653850555419922
1706425646516557600,4.1295576171875,-0.27451562881469727,-0.693515419960022,0.8095245361328125
1706425646520576000,4.133575927734375,-0.24459600448608398,-0.735535204410553,0.7775707244873047
1706425646524594400,4.137594482421875,-0.24782967567443848,-0.7557287216186523,0.7527055740356445
1706425646528612900,4.14161279296875,-0.2745091915130615,-0.7636930346488953,0.7061710357666016
1706425646532631300,4.14563134765625,-0.2671241760253906,-0.7307370901107788,0.6020832061767578
1706425646536649700,4.149649658203125,-0.23988795280456543,-0.6663782596588135,0.4213075637817383
1706425646540668200,4.153668212890625,-0.18080830574035645,-0.5824986100196838,0.2739849090576172
1706425646544686600,4.1576865234375,-0.1427624225616455,-0.4719458818435669,0.1577615737915039
1706425646548705000,4.161705078125,-0.07328176498413086,-0.35169440507888794,0.058304786682128906
1706425646552723500,4.165723388671875,-0.010968208312988281,-0.23622393608093262,-0.03148174285888672
1706425646556742000,4.169741943359375,0.05113530158996582,-0.14232653379440308,-0.1306600570678711
1706425646560760300,4.17376025390625,0.06501221656799316,-0.07012635469436646,-0.17217636108398438
1706425646564778800,4.17777880859375,0.06167125701904297,0.01142805814743042,-0.1919384002685547
1706425646568797400,4.18179736328125,0.0672919750213623,0.08781182765960693,-0.2210245132446289
1706425646572816000,4.18581591796875,0.041025400161743164,0.15668857097625732,-0.2354259490966797
1706425646576834600,4.18983447265625,-0.009989261627197266,0.19405758380889893,-0.21839046478271484
1706425646580853000,4.19385302734375,-0.04278135299682617,0.23347216844558716,-0.17469120025634766
1706425646584871400,4.197871337890625,-0.1027824878692627,0.25115907192230225,-0.13785743713378906
1706425646588890000,4.20189013671875,-0.15646123886108398,0.25656819343566895,-0.06961727142333984
1706425646592908500,4.205908447265625,-0.20861434936523438,0.24012941122055054,0.0012836456298828125
1706425646596927200,4.20992724609375,-0.2280278205871582,0.20678246021270752,0.07959651947021484
1706425646600945700,4.213945556640625,-0.22419047355651855,0.18286949396133423,0.17483139038085938
1706425646604964400,4.21796435546875,-0.23758602142333984,0.14202672243118286,0.2796974182128906
1706425646608982800,4.221982666015625,-0.22745347023010254,0.09147244691848755,0.3822011947631836
1706425646613001200,4.226001220703125,-0.23669099807739258,0.04557013511657715,0.47269344329833984
1706425646617020000,4.23002001953125,-0.25317835807800293,0.0403476357460022,0.5391864776611328
1706425646621038300,4.234038330078125,-0.26015567779541016,0.003976166248321533,0.6080245971679688
1706425646625057000,4.23805712890625,-0.27646780014038086,-0.013128221035003662,0.5810022354125977
1706425646629075500,4.242075439453125,-0.32091355323791504,-0.027747750282287598,0.7236642837524414
1706425646633094100,4.24609423828125,-0.39375901222229004,0.015096664428710938,0.7918863296508789
1706425646637112600,4.250112548828125,-0.4114959239959717,0.07967066764831543,0.7619647979736328
1706425646641131000,4.254131103515625,-0.39312243461608887,0.0918494462966919,0.7679195404052734
1706425646645149400,4.2581494140625,-0.3912181854248047,0.10435760021209717,0.7977027893066406
1706425646649168000,4.26216796875,-0.36261796951293945,0.15296369791030884,0.8584165573120117
1706425646653186300,4.266186279296875,-0.2928459644317627,0.16585659980773926,0.8973245620727539
1706425646657204700,4.270204833984375,-0.2944149971008301,0.2578679323196411,0.8977079391479492
1706425646661223400,4.274223388671875,-0.25031518936157227,0.33794963359832764,0.8693094253540039
1706425646665241900,4.278241943359375,-0.1510906219482422,0.5043131113052368,0.7547779083251953
1706425646669260300,4.28226025390625,-0.09741830825805664,0.6325551271438599,0.671513557434082
1706425646673278700,4.28627880859375,-0.04623603820800781,0.7658572793006897,0.6362543106079102
1706425646677297200,4.290297119140625,-0.03840351104736328,0.8779426217079163,0.582036018371582
1706425646681315600,4.294315673828125,-0.011803627014160156,0.9999655485153198,0.5185127258300781
1706425646685334000,4.298333984375,0.007277488708496094,1.0793781280517578,0.4480743408203125
1706425646689352400,4.3023525390625,-0.028902292251586914,1.123457908630371,0.39940452575683594
1706425646693371000,4.306370849609375,-0.08917403221130371,1.1753246784210205,0.37008190155029297
1706425646697389600,4.3103896484375,-0.15444707870483398,1.2230477333068848,0.3003091812133789
1706425646701408000,4.314407958984375,-0.21255898475646973,1.190157413482666,0.2737998962402344
1706425646705426400,4.318426513671875,-0.2558164596557617,1.0862611532211304,0.26395511627197266
1706425646709445000,4.322445068359375,-0.31493091583251953,0.9639613032341003,0.2227191925048828
1706425646713464300,4.32646435546875,-0.37493133544921875,0.8291542530059814,0.18218135833740234
1706425646717482500,4.330482421875,-0.400188684463501,0.6885811686515808,0.12495136260986328
1706425646721499400,4.33449951171875,-0.4173707962036133,0.5779873132705688,0.03940296173095703
1706425646725516800,4.338516845703125,-0.40314507484436035,0.4541096091270447,-0.045592308044433594
1706425646729534200,4.3425341796875,-0.3674297332763672,0.3432573974132538,-0.09670829772949219
1706425646733552400,4.346552490234375,-0.30114221572875977,0.25466424226760864,-0.14027023315429688
1706425646737571300,4.3505712890625,-0.22823596000671387,0.17383438348770142,-0.16211605072021484
1706425646741590500,4.354590576171875,-0.1393299102783203,0.0910954475402832,-0.1719064712524414
1706425646745610200,4.3586103515625,-0.051183223724365234,0.03487163782119751,-0.18401050567626953
1706425646749630000,4.3626298828125,0.0029582977294921875,-0.0070084333419799805,-0.20553874969482422
1706425646753649200,4.366649169921875,0.07554888725280762,-0.03216981887817383,-0.22923946380615234
1706425646757667600,4.37066748046875,0.1188192367553711,-0.03369265794754028,-0.23842811584472656
1706425646761685500,4.374685546875,0.12584614753723145,-0.02361011505126953,-0.22370052337646484
1706425646765703700,4.37870361328125,0.12538433074951172,-0.01382303237915039,-0.18997955322265625
1706425646769721600,4.3827216796875,0.10098552703857422,0.00038927793502807617,-0.1422290802001953
1706425646773740000,4.386739990234375,0.06721711158752441,0.007074594497680664,-0.0663595199584961
1706425646777758500,4.390758544921875,0.03146028518676758,0.01579219102859497,0.018308639526367188
1706425646781777200,4.394777099609375,0.015292167663574219,0.0027617812156677246,0.09499645233154297
1706425646785795800,4.3987958984375,-0.017045021057128906,-0.024708926677703857,0.18038368225097656
1706425646789814800,4.402814697265625,-0.036866188049316406,-0.08073920011520386,0.22449302673339844
1706425646793833700,4.406833740234375,0.017745494842529297,-0.1531456708908081,0.26557254791259766
1706425646797852400,4.410852294921875,0.07976746559143066,-0.2560533881187439,0.3154773712158203
1706425646801871000,4.41487109375,0.15888595581054688,-0.39389151334762573,0.3645315170288086
1706425646805889500,4.4188896484375,0.2621784210205078,-0.564175009727478,0.45782470703125
1706425646809908000,4.422907958984375,0.3562052249908447,-0.7643046379089355,0.5712175369262695
1706425646813926100,4.426926025390625,0.41497182846069336,-0.960940420627594,0.7163820266723633
1706425646817944600,4.430944580078125,0.4436039924621582,-1.1731655597686768,0.8835134506225586
1706425646821963000,4.434962890625,0.4233717918395996,-1.3842995166778564,1.010650634765625
1706425646825981200,4.438981201171875,0.302476167678833,-1.582581877708435,1.1313552856445312
1706425646829999600,4.44299951171875,0.15073275566101074,-1.7680753469467163,1.2242708206176758
1706425646834018000,4.44701806640625,-0.017296314239501953,-1.9313050508499146,1.2896223068237305
1706425646838036500,4.451036376953125,-0.1814107894897461,-2.0657124519348145,1.2869014739990234
1706425646842055000,4.455054931640625,-0.31529736518859863,-2.157518148422241,1.2142229080200195
1706425646846073300,4.4590732421875,-0.40734314918518066,-2.2282321453094482,1.0646390914916992
1706425646850091800,4.463091796875,-0.44849467277526855,-2.2755513191223145,0.8408327102661133
1706425646854110200,4.467110107421875,-0.4348716735839844,-2.2923948764801025,0.6461153030395508
1706425646858129000,4.47112890625,-0.38660693168640137,-2.274204730987549,0.44252681732177734
1706425646862147300,4.475147216796875,-0.33821773529052734,-2.197389841079712,0.30222034454345703
1706425646866166000,4.479166015625,-0.3340299129486084,-2.057429790496826,0.1777496337890625
1706425646870184400,4.483184326171875,-0.3488643169403076,-1.8546032905578613,0.033664703369140625
1706425646874203000,4.487202880859375,-0.4097561836242676,-1.6200637817382812,-0.1033945083618164
1706425646878221600,4.4912216796875,-0.4666268825531006,-1.3155357837677002,-0.23812198638916016
1706425646882240000,4.495239990234375,-0.5428740978240967,-0.9623700976371765,-0.3970050811767578
1706425646886258700,4.4992587890625,-0.6974389553070068,-0.5506361722946167,-0.5826921463012695
1706425646890277400,4.50327734375,-0.8478665351867676,-0.06077295541763306,-0.9198999404907227
1706425646894296000,4.507296142578125,-0.9543821811676025,0.4338234066963196,-1.3252263069152832
1706425646898314800,4.511314697265625,-1.0250847339630127,0.9625636339187622,-1.6723527908325195
1706425646902333400,4.51533349609375,-1.0588350296020508,1.4566470384597778,-1.8517484664916992
1706425646906351900,4.519351806640625,-0.9833378791809082,1.9260305166244507,-1.9212713241577148
1706425646910370600,4.52337060546875,-0.8129022121429443,2.3109922409057617,-1.943354606628418
1706425646914389000,4.527388916015625,-0.574068546295166,2.5757033824920654,-1.9706707000732422
1706425646918407400,4.531407470703125,-0.28850650787353516,2.677194118499756,-1.9625372886657715
1706425646922425600,4.535425537109375,0.0006530284881591797,2.6296215057373047,-1.9549250602722168
1706425646926444000,4.539444091796875,0.24316883087158203,2.471045970916748,-1.8976335525512695
1706425646930462200,4.543462158203125,0.41257762908935547,2.2539215087890625,-1.781097412109375
1706425646934480600,4.547480712890625,0.4704110622406006,2.009066343307495,-1.6124763488769531
1706425646938499000,4.5514990234375,0.37807536125183105,1.7101006507873535,-1.4227542877197266
1706425646942517500,4.555517578125,0.183258056640625,1.4001212120056152,-1.1950626373291016
1706425646946536000,4.559535888671875,-0.10000944137573242,1.0842652320861816,-0.9699001312255859
1706425646950554400,4.563554443359375,-0.3447861671447754,0.7890392541885376,-0.7448740005493164
1706425646954572800,4.56757275390625,-0.5009500980377197,0.5171176195144653,-0.5103578567504883
1706425646958591500,4.571591552734375,-0.5278244018554688,0.29495304822921753,-0.32860565185546875
1706425646962610200,4.575610107421875,-0.4304349422454834,0.11050719022750854,-0.18276596069335938
1706425646966628600,4.579628662109375,-0.2451479434967041,-0.055571556091308594,-0.14204025268554688
1706425646970647300,4.583647216796875,-0.09410476684570312,-0.17233258485794067,-0.22064781188964844
1706425646974666000,4.587666015625,0.06100821495056152,-0.22320061922073364,-0.4136533737182617
1706425646978684700,4.5916845703125,0.12669920921325684,-0.17479455471038818,-0.6849403381347656
1706425646982703400,4.595703369140625,0.17962360382080078,-0.06074243783950806,-0.9315223693847656
1706425646986722000,4.59972216796875,0.19582700729370117,0.10710138082504272,-1.131850242614746
1706425646990740500,4.603740478515625,0.2208385467529297,0.2784300446510315,-1.262059211730957
1706425646994759000,4.607759033203125,0.21871137619018555,0.4387727677822113,-1.3269968032836914
1706425646998777300,4.61177734375,0.23259592056274414,0.5643224120140076,-1.3506717681884766
1706425647002795800,4.615795654296875,0.2743854522705078,0.6693288087844849,-1.297227382659912
1706425647006814000,4.61981396484375,0.34427833557128906,0.7346464991569519,-1.2003521919250488
1706425647010832100,4.62383203125,0.4639897346496582,0.7601414918899536,-1.017141342163086
1706425647014850300,4.627850341796875,0.6362309455871582,0.7336352467536926,-0.7311458587646484
1706425647018868700,4.63186865234375,0.8755688667297363,0.7025606036186218,-0.22543716430664062
1706425647022887200,4.63588720703125,1.2158946990966797,0.6303282380104065,0.46591949462890625
1706425647026905900,4.63990576171875,1.6550512313842773,0.5352194309234619,1.3639516830444336
1706425647030924500,4.643924560546875,2.179234027862549,0.30604439973831177,2.2813291549682617
1706425647034943200,4.647943115234375,2.7484207153320312,-0.06518065929412842,2.9591541290283203
1706425647038962000,4.6519619140625,3.2676634788513184,-0.6003097295761108,3.394862174987793
1706425647042980600,4.655980712890625,3.598917007446289,-1.2537287473678589,3.5381765365600586
1706425647046999000,4.6599990234375,3.640117645263672,-2.0080113410949707,3.4586057662963867
1706425647051017700,4.664017822265625,3.1719436645507812,-2.58223032951355,3.168283462524414
1706425647055036400,4.668036376953125,2.1812682151794434,-2.7694225311279297,2.893392562866211
1706425647059054800,4.672054931640625,0.8671059608459473,-2.6787633895874023,2.6903343200683594
1706425647063073300,4.6760732421875,-0.4802584648132324,-2.290390729904175,2.3328018188476562
1706425647067092000,4.680092041015625,-1.5433814525604248,-1.696927785873413,1.7185964584350586
1706425647071110100,4.684110107421875,-2.1434335708618164,-0.8546576499938965,1.0013713836669922
1706425647075128600,4.688128662109375,-2.2712371349334717,0.09790152311325073,0.3510932922363281
1706425647079146800,4.692146728515625,-2.106489896774292,1.0338420867919922,-0.05063629150390625
1706425647083165200,4.696165283203125,-1.8195011615753174,1.8570191860198975,-0.30701160430908203
1706425647087183600,4.70018359375,-1.5012352466583252,2.5406877994537354,-0.47333812713623047
1706425647091201800,4.704201904296875,-1.204427719116211,3.0746994018554688,-0.5760927200317383
1706425647095220200,4.70822021484375,-0.9886810779571533,3.463266372680664,-0.5820217132568359
1706425647099239000,4.712239013671875,-0.855919361114502,3.7582740783691406,-0.5369796752929688
1706425647103257600,4.716257568359375,-0.7744138240814209,3.971123218536377,-0.47484874725341797
1706425647107276300,4.7202763671875,-0.7435431480407715,4.127651214599609,-0.4055604934692383
1706425647111295200,4.724295166015625,-0.724238395690918,4.196603775024414,-0.3534231185913086
1706425647115314000,4.72831396484375,-0.6609869003295898,4.187438011169434,-0.34738731384277344
1706425647119332600,4.73233251953125,-0.5417914390563965,4.09564733505249,-0.39460277557373047
1706425647123351000,4.73635107421875,-0.30455684661865234,3.9454009532928467,-0.45191097259521484
1706425647127369500,4.740369384765625,-0.03820610046386719,3.7848610877990723,-0.4401979446411133
1706425647131388000,4.744387939453125,0.24458837509155273,3.597524642944336,-0.3927001953125
1706425647135406300,4.74840625,0.5264372825622559,3.376608371734619,-0.3545713424682617
1706425647139424800,4.7524248046875,0.7305307388305664,3.158334732055664,-0.30649852752685547
1706425647143443200,4.756443115234375,0.8066186904907227,2.9574978351593018,-0.21010208129882812
1706425647147461600,4.760461669921875,0.7669463157653809,2.7503738403320312,-0.048717498779296875
1706425647151480000,4.76447998046875,0.6239066123962402,2.6352837085723877,0.09612846374511719
1706425647155498500,4.76849853515625,0.38530778884887695,2.538297176361084,0.3462858200073242
1706425647159517000,4.772516845703125,0.10422658920288086,2.4425859451293945,0.6655759811401367
1706425647163535600,4.77653564453125,-0.20432615280151367,2.381537437438965,0.9890108108520508
1706425647167554000,4.780553955078125,-0.5376558303833008,2.369387626647949,1.3140544891357422
1706425647171572700,4.78457275390625,-0.7543082237243652,2.3366189002990723,1.6286029815673828
1706425647175591200,4.788591064453125,-0.873075008392334,2.2804388999938965,1.9132270812988281
1706425647179609900,4.79260986328125,-1.0342779159545898,2.217383861541748,2.258371353149414
1706425647183628300,4.796628173828125,-1.2560718059539795,2.1230833530426025,2.66583251953125
1706425647187646700,4.800646728515625,-1.4439754486083984,2.054669141769409,3.230648994445801
1706425647191665200,4.8046650390625,-1.817408800125122,1.9854999780654907,3.87807559967041
1706425647195683800,4.808683837890625,-2.328171968460083,1.9781339168548584,4.524303436279297
1706425647199702300,4.812702392578125,-2.67057728767395,2.0523409843444824,4.89232063293457
1706425647203720700,4.816720703125,-2.367497205734253,2.3694849014282227,4.691390037536621
1706425647207739100,4.8207392578125,-1.3686819076538086,2.926103115081787,4.038125991821289
1706425647211757600,4.824757568359375,0.0026578903198242188,3.570023775100708,3.2236452102661133
1706425647215777000,4.828777099609375,1.2757883071899414,4.218506813049316,2.5743675231933594
1706425647219794700,4.832794677734375,2.111835479736328,4.733144283294678,2.239264488220215
1706425647223812400,4.836812255859375,2.203657627105713,4.929436683654785,2.254441261291504
1706425647227830300,4.840830322265625,1.790478229522705,4.742080211639404,2.24410343170166
1706425647231848400,4.844848388671875,1.0898456573486328,4.346900939941406,2.170069694519043
1706425647235867000,4.848866943359375,0.35117030143737793,3.9728684425354004,1.8862085342407227
1706425647239885600,4.852885498046875,-0.4077491760253906,3.6362040042877197,1.8492097854614258
1706425647243904300,4.856904296875,-1.163907766342163,3.2095630168914795,2.2015857696533203
1706425647247923200,4.860923095703125,-1.3961431980133057,2.6879146099090576,2.5973711013793945
1706425647251942400,4.8649423828125,-0.8997247219085693,2.2671713829040527,3.116872787475586
1706425647255961300,4.86896142578125,-0.0222322940826416,2.1048355102539062,3.507478713989258
1706425647259980000,4.87297998046875,0.7691175937652588,2.0645081996917725,3.6823081970214844
1706425647263998500,4.87699853515625,1.1635572910308838,1.976491093635559,3.3784799575805664
1706425647268016600,4.8810166015625,1.0290460586547852,1.6788634061813354,2.635498046875
1706425647272035000,4.88503515625,0.48656630516052246,1.201234221458435,1.830491065979004
1706425647276053200,4.88905322265625,-0.38391613960266113,0.7119245529174805,1.4741764068603516
1706425647280071700,4.89307177734375,-0.8485391139984131,0.24687743186950684,1.1669750213623047
1706425647284090000,4.897090087890625,-0.8640680313110352,-0.15095782279968262,0.848750114440918
1706425647288108300,4.9011083984375,-0.47581028938293457,-0.4870283603668213,0.6459140777587891
1706425647292126700,4.905126708984375,0.045485496520996094,-0.8290753364562988,0.558140754699707
1706425647296145400,4.9091455078125,0.6417007446289062,-0.9814250469207764,0.6452102661132812
1706425647300163800,4.913163818359375,0.9490213394165039,-1.0833518505096436,0.7059030532836914
1706425647304182500,4.9171826171875,0.7929728031158447,-1.258986473083496,0.7739391326904297
1706425647308201000,4.921200927734375,0.29569482803344727,-1.4480993747711182,0.8568019866943359
1706425647312219600,4.9252197265625,0.030640840530395508,-1.6048929691314697,0.7875995635986328
1706425647316238000,4.929238037109375,0.19787025451660156,-1.753209114074707,0.8324041366577148
1706425647320256800,4.9332568359375,0.3156239986419678,-1.8887457847595215,1.0580463409423828
1706425647324275500,4.937275390625,0.22343015670776367,-1.997403860092163,1.308802604675293
1706425647328294100,4.941294189453125,0.03855085372924805,-2.084390163421631,1.4960718154907227
1706425647332312800,4.945312744140625,-0.11673498153686523,-2.135446548461914,1.6150531768798828
1706425647336331300,4.949331298828125,-0.067596435546875,-2.11474609375,1.6083087921142578
1706425647340350000,4.953349853515625,0.14037275314331055,-2.0749001502990723,1.4975156784057617
1706425647344368600,4.95736865234375,0.38495469093322754,-1.9083077907562256,1.4502573013305664
1706425647348387000,4.961386962890625,0.6656031608581543,-1.80629301071167,1.3207883834838867
1706425647352405800,4.96540576171875,0.799832820892334,-1.6418225765228271,1.1406021118164062
1706425647356424200,4.969424072265625,0.8735048770904541,-1.5104882717132568,0.9506826400756836
1706425647360442600,4.973442626953125,0.8816962242126465,-1.3666646480560303,0.7176933288574219
1706425647364461000,4.9774609375,0.8582892417907715,-1.2388181686401367,0.3914623260498047
1706425647368479500,4.9814794921875,0.8637340068817139,-1.057356595993042,0.012671470642089844
1706425647372498000,4.985497802734375,0.8773438930511475,-0.8748495578765869,-0.35663700103759766
1706425647376516400,4.989516357421875,0.8571293354034424,-0.6934792995452881,-0.668889045715332
1706425647380534800,4.99353466796875,0.7156174182891846,-0.5443501472473145,-0.902949333190918
1706425647384553200,4.99755322265625,0.5016224384307861,-0.420257568359375,-1.025679588317871
1706425647388571600,5.001571533203125,0.4573071002960205,-0.3213372230529785,-1.0972185134887695
1706425647392590000,5.005590087890625,0.6519393920898438,-0.26459169387817383,-1.1010122299194336
1706425647396608800,5.00960888671875,0.9627742767333984,-0.2958807945251465,-1.1113433837890625
1706425647400627200,5.013627197265625,1.2601532936096191,-0.3557925224304199,-1.125929355621338
1706425647404645600,5.017645751953125,1.2086601257324219,-0.45391416549682617,-1.1948356628417969
1706425647408664300,5.021664306640625,0.930152416229248,-0.5687475204467773,-1.3082304000854492
1706425647412682800,5.025682861328125,0.6903424263000488,-0.6617398262023926,-1.5041265487670898
1706425647416701400,5.029701416015625,0.54933762550354,-0.7686548233032227,-1.6867384910583496
1706425647420719900,5.033719970703125,0.6035282611846924,-0.9014053344726562,-1.8013124465942383
1706425647424738600,5.037738525390625,0.6740450859069824,-1.014577865600586,-1.8602161407470703
1706425647428757000,5.041757080078125,0.6322696208953857,-1.1036486625671387,-1.880605697631836
1706425647432775400,5.045775390625,0.5073192119598389,-1.1830182075500488,-1.9296002388000488
1706425647436794000,5.049794189453125,0.3566453456878662,-1.2072954177856445,-2.0191030502319336
1706425647440812500,5.0538125,0.24218249320983887,-1.2555079460144043,-2.1082496643066406
1706425647444831200,5.057831298828125,0.14229822158813477,-1.3036136627197266,-2.1538610458374023
1706425647448849700,5.061849609375,-0.02689218521118164,-1.4018917083740234,-2.184636116027832
1706425647452868000,5.0658681640625,-0.20322704315185547,-1.387773036956787,-2.1097187995910645
1706425647456886500,5.069886474609375,-0.27440404891967773,-1.3858895301818848,-2.036872386932373
1706425647460905000,5.073905029296875,-0.3194468021392822,-1.3438496589660645,-1.9184255599975586
1706425647464923400,5.07792333984375,-0.4150056838989258,-1.3096551895141602,-1.814281940460205
1706425647468941800,5.08194189453125,-0.5473802089691162,-1.2450647354125977,-1.659590721130371
1706425647472960300,5.085960205078125,-0.6045925617218018,-1.1885299682617188,-1.550032615661621
1706425647476978700,5.089978759765625,-0.5775022506713867,-1.1209220886230469,-1.4495649337768555
1706425647480997000,5.0939970703125,-0.5262343883514404,-1.1118321418762207,-1.2841086387634277
1706425647485015600,5.098015625,-0.5635466575622559,-1.0870418548583984,-1.1326379776000977
1706425647489034000,5.102033935546875,-0.7183384895324707,-1.0609040260314941,-0.9376230239868164
1706425647493052400,5.106052490234375,-0.8782896995544434,-1.059725284576416,-0.758854866027832
1706425647497070800,5.11007080078125,-0.9668606519699097,-1.0810647010803223,-0.596315860748291
1706425647501089300,5.11408935546875,-0.9648734331130981,-1.1249055862426758,-0.469205379486084
1706425647505107700,5.118107666015625,-0.8771450519561768,-1.162407398223877,-0.32958555221557617
1706425647509126100,5.122126220703125,-0.7540302276611328,-1.2294692993164062,-0.23012971878051758
1706425647513144600,5.12614453125,-0.6292867660522461,-1.3068222999572754,-0.12998437881469727
1706425647517163000,5.1301630859375,-0.5343141555786133,-1.3753056526184082,-0.036249637603759766
1706425647521181400,5.134181396484375,-0.3880898952484131,-1.418093204498291,0.03929328918457031
1706425647525200000,5.138199951171875,-0.26782679557800293,-1.4805994033813477,0.08971643447875977
1706425647529218600,5.142218505859375,-0.17613136768341064,-1.4885711669921875,0.1390848159790039
1706425647533237000,5.146237060546875,0.07134222984313965,-1.5281171798706055,0.2185530662536621
1706425647537255400,5.15025537109375,0.21569573879241943,-1.5129680633544922,0.21103477478027344
1706425647541274000,5.154274169921875,0.2953915596008301,-1.4835877418518066,0.2030496597290039
1706425647545292800,5.158292724609375,0.25534379482269287,-1.4183635711669922,0.16126537322998047
1706425647549311500,5.1623115234375,0.2106494903564453,-1.3267855644226074,0.13132190704345703
1706425647553330200,5.166330078125,0.1661059856414795,-1.2183403968811035,0.09184408187866211
1706425647557348900,5.170348876953125,0.1720719337463379,-1.1121902465820312,0.052439212799072266
1706425647561367300,5.1743671875,0.1690502166748047,-0.9436964988708496,0.008328437805175781
1706425647565386000,5.178385986328125,0.10724663734436035,-0.7608156204223633,-0.03338623046875
1706425647569404700,5.18240478515625,0.09242331981658936,-0.5444955825805664,-0.0608673095703125
1706425647573423000,5.186423095703125,0.12964844703674316,-0.34762001037597656,-0.10072851181030273
1706425647577441500,5.190441650390625,0.08521997928619385,-0.13673973083496094,-0.1626453399658203
1706425647581460000,5.1944599609375,-0.12931311130523682,0.0639181137084961,-0.19903993606567383
1706425647585478400,5.198478515625,-0.4178636074066162,0.26378822326660156,-0.29149341583251953
1706425647589496800,5.202496826171875,-0.588898777961731,0.4747443199157715,-0.3945779800415039
1706425647593515300,5.206515380859375,-0.47027885913848877,0.6774616241455078,-0.49175453186035156
1706425647597533700,5.21053369140625,-0.08629238605499268,0.8789844512939453,-0.6454243659973145
1706425647601552400,5.214552490234375,0.2900869846343994,1.076767921447754,-0.7409358024597168
1706425647605570800,5.21857080078125,0.4364142417907715,1.232409954071045,-0.7331228256225586
1706425647609589200,5.22258935546875,0.2811002731323242,1.3267240524291992,-0.689262866973877
1706425647613607700,5.226607666015625,0.023044109344482422,1.457747459411621,-0.6622672080993652
1706425647617626000,5.230626220703125,-0.2302154302597046,1.539318561553955,-0.6568603515625
1706425647621644500,5.23464453125,-0.37589704990386963,1.6360726356506348,-0.6276230812072754
1706425647625663000,5.2386630859375,-0.2419588565826416,1.7431726455688477,-0.6153526306152344
1706425647629681400,5.242681396484375,0.14726746082305908,1.8652725219726562,-0.6226763725280762
1706425647633699800,5.246699951171875,0.5331718921661377,1.9472856521606445,-0.6425824165344238
1706425647637718300,5.25071826171875,0.762677788734436,1.9987783432006836,-0.5676021575927734
1706425647641736700,5.25473681640625,0.7140073776245117,2.0365257263183594,-0.5606808662414551
1706425647645755400,5.25875537109375,0.5526641607284546,2.0343170166015625,-0.45661449432373047
1706425647649773800,5.26277392578125,0.31483733654022217,2.023292064666748,-0.3849058151245117
1706425647653792500,5.26679248046875,0.07030367851257324,2.0083131790161133,-0.32883715629577637
1706425647657811200,5.270811279296875,-0.08493924140930176,2.022939682006836,-0.3147883415222168
