time,seconds_elapsed,z,y,x
1706425586434413000,0.2134130859375,1.169966697692871,-0.08093154430389404,1.182581901550293
1706425586438418200,0.217418212890625,0.9822759628295898,-0.11018705368041992,1.1597603559494019
1706425586442428400,0.221428466796875,0.8549404144287109,-0.09903788566589355,1.1546971797943115
1706425586446445300,0.2254453125,0.7644186019897461,-0.08117079734802246,1.129084587097168
1706425586450464500,0.229464599609375,0.7207918167114258,-0.04160737991333008,1.0965754985809326
1706425586454492200,0.2334921875,0.6433143615722656,-0.01867806911468506,1.022207498550415
1706425586458523600,0.237523681640625,0.4771900177001953,0.02250957489013672,0.9002300500869751
1706425586462557700,0.2415576171875,0.2616300582885742,0.04350578784942627,0.8183761835098267
1706425586466585300,0.24558544921875,0.037471771240234375,0.05738699436187744,0.805621325969696
1706425586470603000,0.24960302734375,-0.14989852905273438,0.051799774169921875,0.8720318675041199
1706425586474620000,0.253619873046875,-0.4350395202636719,0.08711493015289307,0.8162462711334229
1706425586478637000,0.257636962890625,-0.7670202255249023,0.12793493270874023,0.7211768627166748
1706425586482654700,0.26165478515625,-1.0114679336547852,0.16115069389343262,0.6535809636116028
1706425586486673000,0.2656728515625,-1.2240209579467773,0.20370805263519287,0.5772732496261597
1706425586490696000,0.269696044921875,-1.3546037673950195,0.24896454811096191,0.4988918900489807
1706425586494713600,0.273713623046875,-1.4278640747070312,0.281161904335022,0.43182167410850525
1706425586498729500,0.2777294921875,-1.4555110931396484,0.19562900066375732,0.22374385595321655
1706425586502745900,0.281745849609375,-1.3818845748901367,-0.05825352668762207,-0.1818973273038864
1706425586506762800,0.2857626953125,-1.003544807434082,-0.41732656955718994,-0.5121568441390991
1706425586510780700,0.28978076171875,-0.3468818664550781,-0.7015542984008789,-0.4588049650192261
1706425586514799400,0.29379931640625,0.4946002960205078,-0.8666040897369385,-0.3027525842189789
1706425586518818600,0.297818603515625,1.2834739685058594,-1.0587533712387085,-0.38338640332221985
1706425586522838500,0.301838623046875,1.9380950927734375,-1.1234040260314941,-0.36483144760131836
1706425586526858800,0.305858642578125,2.6428279876708984,-1.040260672569275,-0.23002639412879944
1706425586530878700,0.309878662109375,3.126368522644043,-0.9745525121688843,-0.26066792011260986
1706425586534896400,0.313896484375,3.3850135803222656,-0.972922682762146,-0.5228109359741211
1706425586538914300,0.317914306640625,3.5188961029052734,-0.8854330778121948,-0.881054162979126
1706425586542932000,0.321931884765625,3.517868995666504,-0.712856650352478,-1.1623725891113281
1706425586546950000,0.325949951171875,3.4717798233032227,-0.3649204969406128,-1.1608134508132935
1706425586550968000,0.329968017578125,3.248960494995117,0.02333807945251465,-1.022354006767273
1706425586554986500,0.333986572265625,2.753602981567383,0.25516021251678467,-0.9255795478820801
1706425586559005200,0.338005126953125,2.1646995544433594,0.27665555477142334,-0.7113400101661682
1706425586563024000,0.34202392578125,1.4464073181152344,0.22656750679016113,-0.5680704116821289
1706425586567042600,0.34604248046875,0.6546134948730469,0.14938247203826904,-0.18463478982448578
1706425586571061500,0.3500615234375,-0.21469497680664062,0.16119956970214844,0.2307816743850708
1706425586575080200,0.354080078125,-1.0579862594604492,0.1770479679107666,0.6595721244812012
1706425586579098600,0.3580986328125,-1.8161840438842773,0.18189382553100586,1.0573866367340088
1706425586583116800,0.36211669921875,-2.482882499694824,0.2312260866165161,1.3523198366165161
1706425586587135200,0.36613525390625,-3.056300163269043,0.2995433807373047,1.541711449623108
1706425586591153700,0.370153564453125,-3.567324638366699,0.36884570121765137,1.6294631958007812
1706425586595171800,0.374171875,-3.980416774749756,0.3956162929534912,1.541859745979309
1706425586599190300,0.378190185546875,-4.323914527893066,0.38385701179504395,1.3262014389038086
1706425586603208700,0.382208740234375,-4.578505516052246,0.388899564743042,1.0264489650726318
1706425586607227000,0.386226806640625,-4.6006669998168945,0.3802194595336914,0.62203049659729
1706425586611245300,0.390245361328125,-4.430179119110107,0.33464717864990234,0.1981763243675232
1706425586615263500,0.394263427734375,-4.141016006469727,0.25024938583374023,-0.2250528335571289
1706425586619282000,0.398281982421875,-3.826752185821533,0.23536181449890137,-0.644366979598999
1706425586623300400,0.40230029296875,-3.593338966369629,0.33773183822631836,-1.0159424543380737
1706425586627318500,0.406318603515625,-3.4766502380371094,0.4536752700805664,-1.2844998836517334
1706425586631337000,0.4103369140625,-3.5238656997680664,0.4439966678619385,-1.6518974304199219
1706425586635355100,0.414355224609375,-3.668598175048828,0.28975701332092285,-2.0413029193878174
1706425586639373600,0.41837353515625,-3.692753314971924,0.09253621101379395,-2.278780460357666
1706425586643392000,0.42239208984375,-3.504261016845703,0.013204097747802734,-2.2617719173431396
1706425586647410200,0.42641015625,-3.278524875640869,-0.035128116607666016,-2.039569854736328
1706425586651428600,0.4304287109375,-3.1007633209228516,-0.0722036361694336,-1.7682896852493286
1706425586655447000,0.434447021484375,-2.9062976837158203,-0.13648366928100586,-1.535156011581421
1706425586659465200,0.43846533203125,-2.758784294128418,-0.25864624977111816,-1.3506639003753662
1706425586663483600,0.442483642578125,-2.6454315185546875,-0.3722909688949585,-1.2108585834503174
1706425586667502000,0.446502197265625,-2.4876608848571777,-0.47327089309692383,-1.1427626609802246
1706425586671520500,0.4505205078125,-2.302403450012207,-0.515139102935791,-1.1543095111846924
1706425586675539000,0.4545390625,-2.184234142303467,-0.5912461280822754,-1.1568455696105957
1706425586679557400,0.458557373046875,-2.1532020568847656,-0.673250675201416,-1.2186262607574463
1706425586683576000,0.462576171875,-2.082775115966797,-0.7566202878952026,-1.0525102615356445
1706425586687594500,0.466594482421875,-2.027714729309082,-0.8015079498291016,-1.0678294897079468
1706425586691612700,0.47061279296875,-1.9852495193481445,-0.8490837812423706,-1.0890212059020996
1706425586695631000,0.474631103515625,-1.9882164001464844,-0.904173731803894,-1.0900001525878906
1706425586699649300,0.478649169921875,-2.0241141319274902,-0.9668725728988647,-1.0000207424163818
1706425586703667500,0.48266748046875,-2.0546302795410156,-1.0373528003692627,-0.831961989402771
1706425586707685600,0.486685546875,-2.131791114807129,-1.1109092235565186,-0.6291089057922363
1706425586711703800,0.490703857421875,-2.247840404510498,-1.1615883111953735,-0.4669763445854187
1706425586715722200,0.49472216796875,-2.378602981567383,-1.168440341949463,-0.2735912799835205
1706425586719740400,0.498740478515625,-2.5096654891967773,-1.2172666788101196,-0.1127481460571289
1706425586723758600,0.502758544921875,-2.631533622741699,-1.2366479635238647,0.011643528938293457
1706425586727777000,0.506777099609375,-2.7087817192077637,-1.290954351425171,0.10989600419998169
1706425586731795500,0.51079541015625,-2.753694534301758,-1.323108196258545,0.18046605587005615
1706425586735814000,0.51481396484375,-2.7570838928222656,-1.3666447401046753,0.25491178035736084
1706425586739832300,0.518832275390625,-2.6956748962402344,-1.357637882232666,0.21748566627502441
1706425586743850800,0.522850830078125,-2.667239189147949,-1.3344111442565918,0.09536027908325195
1706425586747869200,0.526869140625,-2.6477155685424805,-1.3180252313613892,-0.06337177753448486
1706425586751888000,0.530887939453125,-2.6512680053710938,-1.3125638961791992,-0.20673716068267822
1706425586755906300,0.53490625,-2.6611080169677734,-1.3173755407333374,-0.29748523235321045
1706425586759924700,0.5389248046875,-2.6748886108398438,-1.3413312435150146,-0.4789825677871704
1706425586763943400,0.542943359375,-2.628669261932373,-1.3529630899429321,-0.7577807903289795
1706425586767961900,0.5469619140625,-2.527855396270752,-1.4089967012405396,-0.9650794267654419
1706425586771980000,0.55097998046875,-2.396707057952881,-1.4850876331329346,-1.056990385055542
1706425586775998500,0.55499853515625,-2.2330703735351562,-1.5288383960723877,-1.1318719387054443
1706425586780016400,0.559016357421875,-1.9423041343688965,-1.493391513824463,-1.2110360860824585
1706425586784034000,0.563033935546875,-1.539802074432373,-1.3512502908706665,-1.341831922531128
1706425586788052000,0.567052001953125,-1.0976815223693848,-1.1653655767440796,-1.4362554550170898
1706425586792070100,0.571070068359375,-0.772728443145752,-1.0499985218048096,-1.4287300109863281
1706425586796088600,0.575088623046875,-0.45704174041748047,-1.0281729698181152,-1.3776648044586182
1706425586800107300,0.579107177734375,-0.2476949691772461,-1.0917997360229492,-1.276569128036499
1706425586804126000,0.5831259765625,-0.14833307266235352,-1.2090791463851929,-1.1283934116363525
1706425586808144600,0.58714453125,-0.053484439849853516,-1.3746657371520996,-0.9952507019042969
1706425586812163600,0.59116357421875,0.04882621765136719,-1.578436017036438,-0.8981454372406006
1706425586816182300,0.595182373046875,0.14446544647216797,-1.7914724349975586,-0.7841389179229736
1706425586820200400,0.599200439453125,0.21468210220336914,-2.042180299758911,-0.5772116184234619
1706425586824219000,0.603218994140625,0.2741966247558594,-2.135653018951416,-0.3631470203399658
1706425586828237300,0.6072373046875,0.588890552520752,-2.080770492553711,-0.3130066394805908
1706425586832255500,0.61125537109375,0.6536331176757812,-2.1118149757385254,-0.13537192344665527
1706425586836273700,0.615273681640625,0.8129181861877441,-2.1122355461120605,0.0766901969909668
1706425586840291800,0.619291748046875,1.1445631980895996,-2.1396331787109375,0.22130465507507324
1706425586844310300,0.623310302734375,1.2532906532287598,-2.160881519317627,0.37049412727355957
1706425586848328400,0.627328369140625,1.374091625213623,-2.2003231048583984,0.3464477062225342
1706425586852346600,0.6313466796875,1.4620866775512695,-2.213141441345215,0.37401556968688965
1706425586856364800,0.63536474609375,1.5534744262695312,-2.1903810501098633,0.3649752140045166
1706425586860383000,0.639383056640625,1.5678114891052246,-2.16837739944458,0.32918262481689453
1706425586864401400,0.6434013671875,1.503718376159668,-2.0903284549713135,0.29303932189941406
1706425586868419600,0.647419677734375,1.2911720275878906,-1.9452345371246338,0.16665434837341309
1706425586872438300,0.651438232421875,1.0175385475158691,-1.819544792175293,0.041365623474121094
1706425586876459300,0.655459228515625,0.631657600402832,-1.7559804916381836,-0.051784515380859375
1706425586880474400,0.659474365234375,0.3199286460876465,-1.865878701210022,0.017004013061523438
1706425586884489700,0.66348974609375,-1.1662163734436035,-4.266872406005859,2.253035545349121
1706425586888505900,0.667505859375,-1.565701961517334,-4.381375789642334,2.000600814819336
1706425586892523300,0.671523193359375,-1.839895248413086,-4.453364372253418,1.6948323249816895
1706425586896542000,0.6755419921875,-2.4420056343078613,-4.557862281799316,1.7908432483673096
1706425586900561700,0.679561767578125,-2.9562790393829346,-4.398624897003174,1.8333282470703125
1706425586904582100,0.68358203125,-3.165013313293457,-3.900972604751587,1.601245403289795
1706425586908603100,0.68760302734375,-3.2564597129821777,-3.357349157333374,1.2788476943969727
1706425586912623000,0.691623046875,-3.196674346923828,-2.9965531826019287,1.0509958267211914
1706425586916640800,0.695640869140625,-3.0801401138305664,-2.8840150833129883,0.9042491912841797
1706425586920658700,0.69965869140625,-2.852501630783081,-2.923349618911743,0.8499002456665039
1706425586924676600,0.703676513671875,-2.1477766036987305,-3.504322052001953,1.0566258430480957
1706425586928694800,0.70769482421875,-1.457775592803955,-4.403189659118652,1.4689836502075195
1706425586932713200,0.711713134765625,-1.5161056518554688,-4.561628341674805,1.613337516784668
1706425586936731600,0.715731689453125,-1.884800910949707,-4.738104820251465,1.7243781089782715
1706425586940750600,0.71975048828125,-2.1427812576293945,-5.08402681350708,1.7240791320800781
1706425586944769300,0.723769287109375,-2.3001654148101807,-5.536129474639893,1.6822090148925781
1706425586948788000,0.7277880859375,-2.28879976272583,-6.088680267333984,1.6677732467651367
1706425586952806700,0.731806640625,-2.183661699295044,-6.629349708557129,1.70650053024292
1706425586956825000,0.7358251953125,-1.951756477355957,-7.074872016906738,1.7790184020996094
1706425586960843300,0.73984326171875,-1.5983667373657227,-7.401955604553223,1.9017267227172852
1706425586964861400,0.743861328125,-1.0529217720031738,-7.608856678009033,2.033630847930908
1706425586968879400,0.74787939453125,-0.15088677406311035,-7.743724346160889,2.043315887451172
1706425586972897500,0.7518974609375,1.7901031970977783,-7.733609199523926,1.9089202880859375
1706425586976915700,0.755915771484375,3.9125595092773438,-7.734674453735352,1.7848076820373535
1706425586980934000,0.759933837890625,4.448976516723633,-7.751864433288574,2.096724510192871
1706425586984952300,0.763952392578125,3.6544482707977295,-7.876924514770508,2.5951480865478516
1706425586988970800,0.767970703125,3.2982637882232666,-8.038983345031738,2.5601887702941895
1706425586992989400,0.771989501953125,3.4111251831054688,-8.20399284362793,2.1017980575561523
1706425586997008000,0.7760078125,3.4909512996673584,-8.317068099975586,1.6244521141052246
1706425587001026300,0.7800263671875,3.430112600326538,-8.35470962524414,1.1971559524536133
1706425587005044700,0.784044677734375,3.347954750061035,-8.30075454711914,0.7386307716369629
1706425587009063200,0.788063232421875,3.3063457012176514,-8.163078308105469,0.1302051544189453
1706425587013081600,0.79208154296875,3.3884925842285156,-7.985652446746826,-0.6720829010009766
1706425587017100000,0.79610009765625,3.5205416679382324,-7.705039024353027,-1.6523022651672363
1706425587021118500,0.800118408203125,3.7886133193969727,-7.310716152191162,-2.754161834716797
1706425587025137200,0.80413720703125,4.135208606719971,-6.730538368225098,-3.971705913543701
1706425587029155600,0.808155517578125,4.4266839027404785,-6.030961990356445,-5.15383768081665
1706425587033174000,0.812174072265625,4.682587623596191,-5.247129917144775,-6.355006694793701
1706425587037192400,0.8161923828125,4.922055244445801,-4.459148406982422,-7.522204399108887
1706425587041210600,0.820210693359375,5.104454040527344,-3.6539435386657715,-8.559791564941406
1706425587045229000,0.82422900390625,5.17542028427124,-2.8705930709838867,-9.444121360778809
1706425587049247500,0.82824755859375,5.194978713989258,-2.1166718006134033,-10.13038158416748
1706425587053265700,0.832265625,5.1274094581604,-1.3921291828155518,-10.612303733825684
1706425587057284000,0.8362841796875,4.996598720550537,-0.5798625946044922,-10.910043716430664
1706425587061302300,0.84030224609375,4.768940448760986,0.2677578926086426,-11.108064651489258
1706425587065320700,0.84432080078125,4.3921637535095215,1.1655333042144775,-11.297553062438965
1706425587069339100,0.848339111328125,3.880791187286377,2.089892864227295,-11.516752243041992
1706425587073357300,0.852357421875,3.26124906539917,2.957688331604004,-11.736928939819336
1706425587077375700,0.856375732421875,2.6246237754821777,3.7313082218170166,-12.007973670959473
1706425587081394200,0.860394287109375,2.326143264770508,4.523383617401123,-12.269930839538574
1706425587085412400,0.864412353515625,2.090707540512085,5.359798908233643,-12.793981552124023
1706425587089430800,0.8684306640625,2.006965160369873,6.150251388549805,-13.388068199157715
1706425587093449000,0.872448974609375,1.9862650632858276,6.828630447387695,-14.037522315979004
1706425587097467400,0.87646728515625,1.8927572965621948,7.457492828369141,-14.861017227172852
1706425587101485800,0.88048583984375,1.7204264402389526,8.043478965759277,-15.904643058776855
1706425587105504000,0.88450390625,1.6040678024291992,8.676095962524414,-16.990074157714844
1706425587109522400,0.8885224609375,1.618995189666748,9.212976455688477,-18.087322235107422
1706425587113540600,0.89254052734375,2.077573776245117,9.929102897644043,-18.995040893554688
1706425587117559000,0.89655908203125,2.5637669563293457,10.543242454528809,-19.420284271240234
1706425587121577500,0.900577392578125,3.178309440612793,11.081045150756836,-19.38165283203125
1706425587125595600,0.904595703125,3.821152687072754,11.573101043701172,-19.01456069946289
1706425587129614300,0.9086142578125,4.36639404296875,11.928821563720703,-18.322954177856445
1706425587133632800,0.9126328125,4.671713352203369,12.134815216064453,-17.382568359375
1706425587137651200,0.916651123046875,4.568920612335205,12.230627059936523,-16.435806274414062
1706425587141669600,0.920669677734375,3.8502023220062256,12.224655151367188,-15.721403121948242
1706425587145688000,0.92468798828125,2.123786449432373,12.156349182128906,-15.034041404724121
1706425587149706500,0.92870654296875,0.36399829387664795,12.11552619934082,-14.143325805664062
1706425587153725000,0.932724853515625,-2.8557827472686768,12.210646629333496,-13.560830116271973
1706425587157743400,0.936743408203125,-7.255848407745361,12.885049819946289,-13.661248207092285
1706425587161761800,0.94076171875,-7.948688507080078,12.985729217529297,-12.44715690612793
1706425587165780200,0.9447802734375,-11.532760620117188,13.307868957519531,-11.68205451965332
1706425587169798700,0.948798583984375,-18.767597198486328,13.587471961975098,-10.762873649597168
1706425587173817000,0.952817138671875,-25.39612579345703,13.524944305419922,-9.124059677124023
1706425587177835300,0.956835205078125,-28.23844337463379,13.036019325256348,-7.0060625076293945
1706425587181853700,0.960853759765625,-25.492565155029297,11.997594833374023,-4.774112701416016
1706425587185872000,0.964871826171875,-17.926074981689453,10.493308067321777,-3.8469552993774414
1706425587189890000,0.96889013671875,-10.866320610046387,9.411771774291992,-4.927433967590332
1706425587193908200,0.972908203125,-6.246761322021484,8.413665771484375,-5.5995635986328125
1706425587197926700,0.9769267578125,-3.1601996421813965,7.350617408752441,-5.621406555175781
1706425587201944800,0.98094482421875,-1.420663595199585,6.223888397216797,-5.059990882873535
1706425587205963000,0.984962890625,-0.6454581022262573,5.382742881774902,-5.126056671142578
1706425587209981200,0.988981201171875,-0.6906120777130127,4.605165481567383,-4.524186134338379
1706425587213999600,0.99299951171875,-0.9669082760810852,3.9053664207458496,-3.4412717819213867
1706425587218018000,0.99701806640625,-1.5044224262237549,3.07236385345459,-1.6011505126953125
1706425587222036200,1.0010361328125,-1.971598505973816,2.4117417335510254,-0.06886959075927734
1706425587226054700,1.0050546875,-1.9334795475006104,1.7922532558441162,0.85162353515625
1706425587230072800,1.00907275390625,-1.8146259784698486,1.235729694366455,1.7516489028930664
1706425587234091300,1.01309130859375,-1.8799126148223877,0.7090754508972168,2.475965976715088
1706425587238109700,1.017109619140625,-1.799619197845459,0.13394498825073242,3.0083999633789062
1706425587242128100,1.021128173828125,-1.6809992790222168,-0.5010273456573486,3.366377353668213
1706425587246146800,1.025146728515625,-1.6744050979614258,-1.0642197132110596,3.901165008544922
1706425587250165200,1.029165283203125,-1.9083163738250732,-1.698122501373291,4.762055397033691
1706425587254184000,1.033183837890625,-2.0361053943634033,-2.0966639518737793,4.8794355392456055
1706425587258202400,1.037202392578125,-1.992874264717102,-2.589409112930298,5.160304069519043
1706425587262220800,1.041220703125,-1.5479846000671387,-3.032503604888916,5.239002704620361
1706425587266239200,1.0452392578125,-1.1281734704971313,-3.399528741836548,4.882661819458008
1706425587270257700,1.049257568359375,-0.6160421371459961,-3.767575263977051,4.541563987731934
1706425587274275800,1.05327587890625,-0.4713618755340576,-4.398231506347656,4.663663864135742
1706425587278294300,1.057294189453125,-0.10258087515830994,-5.006021499633789,4.502739906311035
1706425587282312700,1.061312744140625,-0.6219005584716797,-6.377285003662109,4.491554260253906
1706425587286331000,1.065330810546875,0.0213778018951416,-6.962986946105957,3.565849781036377
1706425587290349300,1.069349365234375,0.6814386248588562,-7.050808906555176,3.518289566040039
1706425587294367500,1.073367431640625,1.4227893352508545,-6.8550896644592285,3.5054750442504883
1706425587298386000,1.077385986328125,1.8510956764221191,-6.3387861251831055,3.205296516418457
1706425587302404400,1.081404296875,1.9993607997894287,-5.639721393585205,2.528575897216797
1706425587306422500,1.085422607421875,1.8045059442520142,-4.821710586547852,1.901763916015625
1706425587310441000,1.08944091796875,1.4532769918441772,-4.229429721832275,1.613400936126709
1706425587314459400,1.09345947265625,1.0648566484451294,-3.833645820617676,1.5237703323364258
1706425587318477800,1.097477783203125,0.6958443522453308,-3.5095391273498535,1.5342254638671875
1706425587322496300,1.101496337890625,0.5522130727767944,-3.2804617881774902,1.5417141914367676
1706425587326514700,1.1055146484375,0.5401962399482727,-3.1554887294769287,1.605849266052246
1706425587330533000,1.109533203125,0.46835601329803467,-3.110011339187622,1.883690357208252
1706425587334551600,1.113551513671875,0.2799719274044037,-3.10514760017395,2.257319450378418
1706425587338570000,1.117570068359375,-0.021676577627658844,-3.2570979595184326,2.585434913635254
1706425587342588200,1.121588134765625,-0.4901389181613922,-3.5363929271698,2.6749582290649414
1706425587346606600,1.125606689453125,-0.9446609020233154,-3.797166347503662,2.846559524536133
1706425587350624800,1.129624755859375,-1.2480852603912354,-4.046718597412109,3.2024574279785156
1706425587354643200,1.133643310546875,-1.3787615299224854,-4.208734512329102,3.591566562652588
1706425587358661600,1.13766162109375,-1.5112488269805908,-4.343266487121582,3.951714515686035
1706425587362679800,1.1416796875,-1.5478112697601318,-4.47413444519043,4.461833953857422
1706425587366698200,1.1456982421875,-1.3169835805892944,-4.679503917694092,4.868203163146973
1706425587370716700,1.149716552734375,-0.9036171436309814,-4.903750419616699,5.054128646850586
1706425587374734800,1.15373486328125,-0.5448477268218994,-5.060664176940918,5.075197219848633
1706425587378753300,1.157753173828125,-0.18092191219329834,-5.104951858520508,5.08455753326416
1706425587382771700,1.161771728515625,0.5221816897392273,-5.2614850997924805,4.869864463806152
1706425587386790100,1.1657900390625,1.548380970954895,-5.311039924621582,4.198368072509766
1706425587390808600,1.16980859375,2.286886692047119,-5.149993896484375,3.5612120628356934
1706425587394827000,1.173826904296875,2.7142481803894043,-4.6130170822143555,2.395442008972168
1706425587398845400,1.177845458984375,2.068216323852539,-3.913109302520752,1.1117420196533203
1706425587402863900,1.18186376953125,2.0109024047851562,-3.6219332218170166,0.3431510925292969
1706425587406882300,1.18588232421875,1.9060817956924438,-2.9987146854400635,-0.6971597671508789
1706425587410900700,1.189900634765625,0.9487907290458679,-1.9501533508300781,-1.4685211181640625
1706425587414919200,1.193919189453125,1.4216505289077759,-1.6607651710510254,-1.51654052734375
1706425587418937600,1.1979375,3.1650846004486084,-1.5205516815185547,-1.6366958618164062
1706425587422955800,1.201955810546875,4.478309631347656,-1.0207428932189941,-2.5421409606933594
1706425587426973700,1.2059736328125,6.962591171264648,-0.33715200424194336,-3.189474105834961
1706425587430991400,1.209991455078125,7.047177314758301,0.25927162170410156,-4.35505485534668
1706425587435009500,1.214009521484375,8.107297897338867,0.8678083419799805,-5.303627967834473
1706425587439027700,1.21802783203125,6.2471604347229,1.861621379852295,-6.674868583679199
1706425587443046000,1.2220458984375,4.221108436584473,2.6986711025238037,-7.846112251281738
1706425587447064600,1.226064697265625,2.486807346343994,3.6480274200439453,-9.113303184509277
1706425587451083300,1.230083251953125,1.02846097946167,4.817997932434082,-10.289196968078613
1706425587455102000,1.23410205078125,-0.06721740961074829,6.068557262420654,-11.127710342407227
1706425587459121000,1.238120849609375,-0.9774032831192017,7.260931968688965,-11.517799377441406
1706425587463139600,1.2421396484375,-2.5619115829467773,8.316886901855469,-11.518546104431152
1706425587467158000,1.246157958984375,-4.014523983001709,9.10381031036377,-11.215239524841309
1706425587471176000,1.250176025390625,-4.829974174499512,9.596981048583984,-10.668983459472656
1706425587475194000,1.254194091796875,-5.242080211639404,9.934340476989746,-9.9909086227417
1706425587479212000,1.2582119140625,-5.211076736450195,10.1795072555542,-9.272665023803711
1706425587483230200,1.262230224609375,-4.94303560256958,10.217085838317871,-8.75360107421875
1706425587487248400,1.266248291015625,-4.4094462394714355,10.046096801757812,-8.466645240783691
1706425587491266800,1.270266845703125,-3.639408588409424,9.79616928100586,-8.344071388244629
1706425587495285500,1.274285400390625,-2.607177257537842,9.643948554992676,-8.382763862609863
1706425587499304200,1.27830419921875,-1.578228235244751,9.672160148620605,-8.55090045928955
1706425587503322600,1.282322509765625,-0.9941759705543518,9.76278305053711,-8.58059310913086
1706425587507341300,1.28634130859375,-1.8784456253051758,9.672124862670898,-8.470196723937988
1706425587511360000,1.290360107421875,-3.0993523597717285,9.508171081542969,-8.282332420349121
1706425587515378400,1.29437841796875,-4.2611894607543945,9.416961669921875,-7.962419509887695
1706425587519396600,1.298396728515625,-5.361016750335693,9.434272766113281,-7.589720726013184
1706425587523415000,1.3024150390625,-5.999527931213379,9.609990119934082,-7.455596923828125
1706425587527434000,1.30643408203125,-6.354384899139404,9.604565620422363,-6.613935470581055
1706425587531452000,1.310451904296875,-7.212621212005615,8.513572692871094,-4.805602073669434
1706425587535469800,1.3144697265625,-8.29334831237793,6.9539337158203125,-3.070680618286133
1706425587539487700,1.31848779296875,-9.554858207702637,4.823368072509766,-0.45039939880371094
1706425587543505700,1.322505615234375,-9.039514541625977,2.94629168510437,2.034153938293457
1706425587547523800,1.32652392578125,-8.07961368560791,1.2763891220092773,3.8671178817749023
1706425587551542300,1.330542236328125,-7.2940850257873535,-0.331679105758667,5.105318546295166
1706425587555560700,1.334560791015625,-6.910223007202148,-2.1313276290893555,6.058789253234863
1706425587559579400,1.338579345703125,-6.431379795074463,-3.7423837184906006,6.921772480010986
1706425587563598000,1.34259814453125,-5.36862850189209,-4.633879661560059,7.0499114990234375
1706425587567616800,1.34661669921875,-4.184814929962158,-4.912535667419434,6.562800884246826
1706425587571635200,1.35063525390625,-3.1175577640533447,-4.923984527587891,5.844976425170898
1706425587575654000,1.35465380859375,-2.357832908630371,-4.3750457763671875,4.778307914733887
1706425587579671800,1.358671875,-1.3733640909194946,-3.6683883666992188,3.899494171142578
1706425587583689700,1.362689697265625,-0.9386316537857056,-3.407539129257202,3.058201789855957
1706425587587708000,1.3667080078125,-1.2512089014053345,-3.3484723567962646,2.600904941558838
1706425587591726000,1.37072607421875,-0.731842041015625,-2.6575820446014404,2.5126428604125977
1706425587595744500,1.37474462890625,-1.5609657764434814,-2.4025487899780273,1.4893274307250977
1706425587599763200,1.37876318359375,-2.667712926864624,-2.2708606719970703,0.6738958358764648
1706425587603781600,1.38278173828125,-2.3677968978881836,-2.2797513008117676,1.2245173454284668
1706425587607800300,1.38680029296875,-1.556764841079712,-1.6433005332946777,1.3895368576049805
1706425587611819000,1.390819091796875,-1.3681142330169678,-1.1831727027893066,1.5955305099487305
1706425587615837700,1.394837646484375,-1.1870808601379395,-0.9372107982635498,1.3290367126464844
1706425587619856100,1.398856201171875,-1.3221880197525024,-1.1850636005401611,0.8975429534912109
1706425587623874300,1.402874267578125,-1.4813307523727417,-1.5476768016815186,0.9294137954711914
1706425587627892700,1.406892822265625,-1.9049302339553833,-1.9478428363800049,0.7306747436523438
1706425587631911200,1.4109111328125,-0.7969510555267334,-1.8047723770141602,0.793644905090332
1706425587635929300,1.414929443359375,0.18518924713134766,-1.5951366424560547,0.4129209518432617
1706425587639947800,1.41894775390625,0.7356531620025635,-1.4934284687042236,0.1174020767211914
1706425587643966200,1.42296630859375,0.9143242835998535,-1.2240934371948242,-0.43281078338623047
1706425587647984400,1.426984375,0.6339373588562012,-1.3482632637023926,-0.6235666275024414
1706425587652002800,1.4310029296875,1.0606966018676758,-1.319617509841919,-0.45884132385253906
1706425587656021000,1.43502099609375,1.0974372625350952,-0.8342361450195312,-1.5442590713500977
1706425587660039400,1.439039306640625,1.676100492477417,-0.15581345558166504,-2.287487030029297
1706425587664057900,1.443057861328125,3.44272518157959,0.6276311874389648,-2.6370716094970703
1706425587668076000,1.447075927734375,5.471973419189453,1.240020513534546,-3.2893171310424805
1706425587672094500,1.451094482421875,5.912717342376709,1.1711058616638184,-3.4081296920776367
1706425587676112600,1.455112548828125,5.549253463745117,0.866300106048584,-2.9889488220214844
1706425587680131000,1.459131103515625,4.403518199920654,-0.5013203620910645,-1.449509620666504
1706425587684149500,1.4631494140625,2.9507217407226562,-1.4599103927612305,0.07382488250732422
1706425587688167700,1.467167724609375,2.461953639984131,-1.6183226108551025,0.6326618194580078
1706425587692186000,1.47118603515625,1.7702796459197998,-1.480015754699707,0.14427947998046875
1706425587696204500,1.47520458984375,1.5196256637573242,-1.95660400390625,2.021498680114746
1706425587700222700,1.47922265625,1.5742106437683105,-2.063661813735962,2.268420696258545
1706425587704241200,1.4832412109375,0.9677010774612427,-1.780029058456421,0.8857908248901367
1706425587708259300,1.48725927734375,1.1952120065689087,-0.9551825523376465,-1.248692512512207
1706425587712277800,1.49127783203125,1.9812994003295898,-0.22737741470336914,-2.256903648376465
1706425587716296200,1.495296142578125,1.964233160018921,0.43787431716918945,-2.244474411010742
1706425587720314400,1.499314453125,1.5702166557312012,1.398476004600525,-2.601835250854492
1706425587724332800,1.503332763671875,1.852826714515686,2.5976738929748535,-3.041290283203125
1706425587728351000,1.50735107421875,3.35231876373291,3.626997709274292,-3.2808799743652344
1706425587732369400,1.511369384765625,-1.2221065759658813,1.7096120119094849,-0.8088655471801758
1706425587736387800,1.515387939453125,-0.3844407796859741,0.8325204849243164,0.6308383941650391
1706425587740406000,1.519406005859375,-0.274669885635376,0.08463966846466064,1.6977863311767578
1706425587744424400,1.523424560546875,0.1799602508544922,0.029938101768493652,1.972804069519043
1706425587748442600,1.527442626953125,1.2580748796463013,-0.057903289794921875,1.98626708984375
1706425587752461000,1.5314609375,1.904524326324463,-0.36135292053222656,1.5242090225219727
1706425587756479500,1.5354794921875,2.5019497871398926,-0.6065266132354736,1.0300006866455078
1706425587760498000,1.539497802734375,2.4420626163482666,-0.7493339776992798,0.6254405975341797
1706425587764516400,1.543516357421875,2.4759573936462402,-0.7405928373336792,0.47978687286376953
1706425587768534800,1.54753466796875,1.950720191001892,-0.9725180864334106,0.9934206008911133
1706425587772553200,1.55155322265625,1.0837668180465698,-0.8389322757720947,1.7654647827148438
1706425587776571600,1.555571533203125,0.5605623722076416,-0.7892130613327026,2.542064666748047
1706425587780590000,1.559590087890625,-0.41383033990859985,-0.757481575012207,3.2205491065979004
1706425587784608500,1.5636083984375,-0.5570768117904663,-0.5139181613922119,3.5719451904296875
1706425587788627000,1.567626953125,-0.5801949501037598,-0.4508957266807556,3.8337478637695312
1706425587792645400,1.571645263671875,-0.431219220161438,-0.7540045380592346,4.316651344299316
1706425587796663800,1.575663818359375,-0.8123507499694824,-1.170778512954712,4.8336920738220215
1706425587800682200,1.57968212890625,-0.9268418550491333,-1.4422972202301025,5.2389702796936035
1706425587804700700,1.58370068359375,-1.0843085050582886,-1.747791051864624,5.590014457702637
1706425587808719000,1.587718994140625,-1.063607931137085,-2.1890876293182373,6.27137565612793
1706425587812737500,1.591737548828125,-1.0329381227493286,-2.669264554977417,6.914172649383545
1706425587816756000,1.595755859375,-1.4218279123306274,-2.980055809020996,6.990653991699219
1706425587820774400,1.5997744140625,-2.2665164470672607,-3.2705349922180176,6.994549751281738
1706425587824792800,1.603792724609375,-3.2271275520324707,-4.285579681396484,7.972301483154297
1706425587828811300,1.607811279296875,-4.261348724365234,-5.39365816116333,8.04588794708252
1706425587832829700,1.61182958984375,-4.827066898345947,-6.252638816833496,8.347488403320312
1706425587836847900,1.615847900390625,-4.074645519256592,-6.087507247924805,9.356282234191895
1706425587840866300,1.6198662109375,-3.2484095096588135,-5.444138526916504,9.416922569274902
1706425587844884700,1.623884765625,-2.032153606414795,-4.362057685852051,8.168702125549316
1706425587848903000,1.62790283203125,-0.5182995796203613,-3.3266139030456543,6.4847002029418945
1706425587852921300,1.63192138671875,0.4350734353065491,-3.1797966957092285,5.866403579711914
1706425587856939500,1.635939453125,0.19828224182128906,-3.572740077972412,5.943234920501709
1706425587860958000,1.6399580078125,-0.23860281705856323,-3.930595636367798,6.047171592712402
1706425587864976400,1.643976318359375,-0.6811670660972595,-4.172159671783447,6.0327606201171875
1706425587868994600,1.64799462890625,-1.1962121725082397,-4.388786315917969,6.129888534545898
1706425587873013000,1.652012939453125,-1.7048935890197754,-4.429780006408691,6.345345497131348
1706425587877031200,1.65603125,-2.048797607421875,-2.994670867919922,7.459586143493652
1706425587881049600,1.660049560546875,-2.330582857131958,-2.5265541076660156,7.625253200531006
1706425587885068000,1.664068115234375,-2.4473085403442383,-2.8898534774780273,6.870776176452637
1706425587889086200,1.668086181640625,-2.8863253593444824,-3.1017322540283203,6.19439172744751
1706425587893104600,1.672104736328125,-3.4922447204589844,-3.2044801712036133,5.717095851898193
1706425587897123000,1.676123046875,-3.797236680984497,-3.2236733436584473,5.645542144775391
1706425587901141200,1.680141357421875,-3.747375249862671,-3.194108009338379,5.784571647644043
1706425587905159700,1.68415966796875,-3.662580966949463,-3.1264991760253906,5.781941890716553
1706425587909177900,1.688177734375,-3.386284828186035,-3.1743998527526855,5.775932312011719
1706425587913196300,1.6921962890625,-3.0363361835479736,-3.2112948894500732,5.4315409660339355
1706425587917214700,1.696214599609375,-2.6118812561035156,-3.3212461471557617,4.981021881103516
1706425587921233000,1.70023291015625,-2.1536571979522705,-3.3970603942871094,4.075697898864746
1706425587925251300,1.704251220703125,-1.6531989574432373,-3.4227874279022217,3.311924457550049
1706425587929269500,1.70826953125,-1.4038770198822021,-3.344306468963623,2.644601821899414
1706425587933288000,1.712287841796875,-0.9342446327209473,-3.5427467823028564,1.2952241897583008
1706425587937306400,1.716306396484375,-0.494948148727417,-4.008819580078125,-0.04804515838623047
1706425587941324800,1.72032470703125,-0.12487673759460449,-4.031075954437256,-1.723775863647461
1706425587945343200,1.72434326171875,0.4702509641647339,-4.284306526184082,-2.958332061767578
1706425587949361700,1.728361572265625,1.2985823154449463,-5.311368942260742,-2.8435049057006836
1706425587953380000,1.732380126953125,1.3959956169128418,-5.755161285400391,-2.8015623092651367
1706425587957398500,1.7363984375,2.3436200618743896,-6.062305927276611,-2.385540008544922
1706425587961417000,1.7404169921875,2.957245111465454,-6.0469231605529785,-2.1911230087280273
1706425587965435400,1.744435302734375,3.2565066814422607,-5.74586820602417,-2.661576271057129
1706425587969453800,1.748453857421875,3.3958961963653564,-4.948424339294434,-4.532701015472412
1706425587973472300,1.75247216796875,3.7249181270599365,-4.398103713989258,-5.998050212860107
1706425587977490700,1.75649072265625,4.463879585266113,-3.916088104248047,-7.683868885040283
1706425587981509000,1.760509033203125,5.16879940032959,-3.8631081581115723,-8.359476089477539
1706425587985527600,1.764527587890625,4.6010284423828125,-4.068262100219727,-10.013044357299805
1706425587989546000,1.7685458984375,4.334539413452148,-4.220328330993652,-11.35641860961914
1706425587993564400,1.772564453125,4.408536434173584,-4.293062686920166,-11.739767074584961
1706425587997582800,1.776582763671875,4.496358871459961,-4.207537651062012,-11.726430892944336
1706425588001601300,1.780601318359375,4.568578243255615,-4.09771728515625,-11.601221084594727
1706425588005619500,1.784619384765625,4.6264519691467285,-4.027958393096924,-11.055498123168945
1706425588009637600,1.7886376953125,4.649263381958008,-4.052432537078857,-10.484121322631836
1706425588013656000,1.792656005859375,4.364724159240723,-3.7714695930480957,-9.837109565734863
1706425588017674200,1.79667431640625,3.9688992500305176,-3.5320520401000977,-8.773787498474121
1706425588021692400,1.8006923828125,3.62935733795166,-3.4860072135925293,-7.40106201171875
1706425588025710600,1.804710693359375,2.9159834384918213,-3.350099563598633,-6.2245965003967285
1706425588029730000,1.80872998046875,2.120234489440918,-3.2503819465637207,-5.070738315582275
1706425588033748200,1.812748291015625,1.2393871545791626,-3.0308666229248047,-3.96697998046875
1706425588037766400,1.816766357421875,0.4408280849456787,-2.769902229309082,-2.8478612899780273
1706425588041784600,1.82078466796875,-0.1037905216217041,-2.297186851501465,-1.97770357131958
1706425588045802800,1.824802734375,-0.4265429973602295,-1.7752156257629395,-1.3283500671386719
1706425588049820700,1.828820556640625,-0.7100465297698975,-1.2299237251281738,-0.7927474975585938
1706425588053838800,1.8328388671875,-1.0388009548187256,-0.6609172821044922,-0.3571352958679199
1706425588057857300,1.836857177734375,-1.3800413608551025,-0.15378046035766602,0.07584095001220703
1706425588061875700,1.840875732421875,-1.8325800895690918,0.2728595733642578,0.38360023498535156
1706425588065894100,1.84489404296875,-2.018234968185425,0.6530275344848633,0.580418586730957
1706425588069912600,1.84891259765625,-2.1504006385803223,0.9869217872619629,0.7262659072875977
1706425588073931300,1.85293115234375,-2.062849760055542,1.31536865234375,0.8764200210571289
1706425588077949700,1.85694970703125,-1.951005458831787,1.5739507675170898,0.9714145660400391
1706425588081968400,1.860968505859375,-1.9166333675384521,1.7388410568237305,1.1288986206054688
1706425588085986800,1.86498681640625,-1.802811861038208,1.8676700592041016,1.2222232818603516
1706425588090005200,1.869005126953125,-1.7160027027130127,1.9437556266784668,1.3378472328186035
1706425588094024000,1.87302392578125,-1.5808439254760742,1.945603847503662,1.3924264907836914
1706425588098042000,1.8770419921875,-1.429614543914795,1.9186749458312988,1.4390196800231934
1706425588102060000,1.88106005859375,-1.2086167335510254,1.8507862091064453,1.50927734375
1706425588106078000,1.885077880859375,-0.8614492416381836,1.729872703552246,1.6011013984680176
1706425588110096000,1.889095947265625,-0.4157407283782959,1.761263370513916,1.380415916442871
1706425588114114000,1.893114013671875,-0.08225750923156738,2.323746681213379,0.7292938232421875
1706425588118132500,1.897132568359375,0.032653093338012695,3.0681095123291016,-0.11830472946166992
1706425588122151000,1.90115087890625,0.1287388801574707,3.416881561279297,-0.5635542869567871
1706425588126169900,1.905169921875,0.3511091470718384,3.3110756874084473,-0.5638513565063477
1706425588130188500,1.9091884765625,0.4503514766693115,3.5807945728302,-0.9059557914733887
1706425588134207200,1.913207275390625,0.34831857681274414,3.605607748031616,-0.9503722190856934
1706425588138226000,1.917225830078125,-0.05138993263244629,3.6967406272888184,-1.1449341773986816
1706425588142244400,1.921244384765625,-0.24257922172546387,3.619471311569214,-1.3338289260864258
1706425588146262500,1.925262451171875,-0.10616779327392578,3.4890389442443848,-1.3904352188110352
1706425588150280400,1.929280517578125,0.3989849090576172,3.363163471221924,-1.3291740417480469
1706425588154298400,1.93329833984375,0.6734641790390015,3.2707014083862305,-1.3054285049438477
1706425588158316300,1.93731640625,0.5528807640075684,3.0898690223693848,-1.1997604370117188
1706425588162334700,1.941334716796875,0.30657124519348145,2.8376998901367188,-1.103487491607666
1706425588166353200,1.945353271484375,0.24363791942596436,2.884885311126709,-0.8972868919372559
1706425588170371600,1.94937158203125,-0.07766580581665039,3.053903579711914,-0.5410032272338867
1706425588174390300,1.953390380859375,-0.26141083240509033,3.2823004722595215,-0.11164045333862305
1706425588178409000,1.957408935546875,-0.1906493902206421,3.493411064147949,0.020282745361328125
1706425588182427600,1.961427734375,0.13585436344146729,3.7228808403015137,-0.1272568702697754
1706425588186446300,1.9654462890625,0.5416524410247803,3.93466854095459,-0.19922304153442383
1706425588190464800,1.96946484375,1.0727571249008179,4.0283613204956055,-0.4270315170288086
1706425588194483200,1.973483154296875,1.500182032585144,3.898944854736328,-0.5468235015869141
1706425588198501400,1.97750146484375,1.8997849225997925,3.8051390647888184,-0.6089906692504883
1706425588202519800,1.981519775390625,2.158339023590088,3.727813243865967,-0.49890756607055664
1706425588206538200,1.985538330078125,2.2588050365448,3.7530248165130615,-0.5421195030212402
1706425588210556400,1.989556396484375,2.6216726303100586,3.5269527435302734,-0.23667335510253906
1706425588214574800,1.993574951171875,3.1445326805114746,3.222872257232666,-0.04546213150024414
1706425588218593300,1.99759326171875,3.6578726768493652,2.695866107940674,0.23155450820922852
1706425588222611500,2.001611572265625,1.5289726257324219,1.6339492797851562,0.038046836853027344
1706425588226630000,2.0056298828125,-4.190637588500977,0.06664276123046875,-0.6379590034484863
1706425588230648000,2.00964794921875,0.5282235145568848,-0.5354971885681152,0.20874738693237305
1706425588234666500,2.01366650390625,1.7913963794708252,-0.8673133850097656,0.3337249755859375
1706425588238685000,2.017684814453125,1.5213959217071533,-1.0008330345153809,0.23296642303466797
1706425588242703000,2.021703125,1.894534707069397,-1.1487784385681152,0.6354618072509766
1706425588246721500,2.025721435546875,2.8747169971466064,-1.1111211776733398,1.4691457748413086
1706425588250739700,2.02973974609375,3.775052070617676,-0.5208468437194824,2.243523597717285
1706425588254758100,2.033758056640625,4.19431209564209,-0.03811931610107422,2.642033338546753
1706425588258776600,2.037776611328125,1.519287347793579,0.18854999542236328,2.055835247039795
1706425588262794800,2.041794677734375,2.5348737239837646,-0.3172640800476074,2.082505702972412
1706425588266813200,2.045813232421875,2.3201534748077393,-0.252901554107666,1.9406371116638184
1706425588270831600,2.04983154296875,1.1342310905456543,-0.28456926345825195,1.6380929946899414
1706425588274849800,2.053849853515625,0.741044819355011,-0.2572488784790039,1.4650888442993164
1706425588278868200,2.0578681640625,-0.054394207894802094,-0.7329010963439941,1.5648455619812012
1706425588282886400,2.061886474609375,-0.7417073845863342,-1.1440563201904297,1.5281615257263184
1706425588286904800,2.06590478515625,-1.0258607864379883,-0.8916549682617188,0.995478630065918
1706425588290923300,2.06992333984375,-1.1494193077087402,-0.9147796630859375,0.9320516586303711
1706425588294941400,2.07394140625,-1.1020539999008179,-1.243886947631836,1.2386255264282227
1706425588298960000,2.0779599609375,-0.964397668838501,-0.7573022842407227,1.020172119140625
1706425588302978000,2.08197802734375,-0.8776816129684448,-0.9128265380859375,1.4133186340332031
1706425588306996500,2.08599658203125,-1.1548569202423096,-0.8338174819946289,1.5119919776916504
1706425588311015000,2.090014892578125,-2.270275354385376,-0.834355354309082,1.3265013694763184
1706425588315033300,2.094033447265625,-4.722715377807617,-1.4860954284667969,1.0633108615875244
1706425588319051800,2.0980517578125,-5.849431037902832,-2.1855287551879883,0.8132534027099609
1706425588323070200,2.1020703125,-5.7490434646606445,-2.354802131652832,0.7611308097839355
1706425588327088600,2.106088623046875,-5.174077033996582,-2.330416679382324,0.8811404705047607
1706425588331107000,2.110107177734375,-4.25475549697876,-2.3284034729003906,1.0180692672729492
1706425588335125800,2.114125732421875,-3.3747596740722656,-2.2559566497802734,0.8975574970245361
1706425588339144200,2.118144287109375,-2.4912850856781006,-2.0826263427734375,0.6428160667419434
1706425588343163000,2.122162841796875,-1.6005427837371826,-1.8857746124267578,0.31046223640441895
1706425588347181300,2.126181396484375,-0.8827076554298401,-1.7781562805175781,0.28162431716918945
1706425588351199700,2.13019970703125,-0.3644355535507202,-1.7335290908813477,0.2791101932525635
1706425588355218000,2.134218017578125,0.1500520259141922,-1.6536989212036133,0.4128708839416504
1706425588359236400,2.138236328125,0.5193175077438354,-1.7299423217773438,0.45558643341064453
1706425588363254500,2.142254638671875,0.815148115158081,-1.8876962661743164,0.4765191078186035
1706425588367272700,2.146272705078125,0.8608813285827637,-2.207918167114258,0.6545870304107666
1706425588371291000,2.150290771484375,0.9106783270835876,-2.763972282409668,1.00469970703125
1706425588375309000,2.15430908203125,0.9793726801872253,-2.9190826416015625,1.0799181461334229
1706425588379327500,2.158327392578125,0.9363722205162048,-3.104055404663086,1.0340626239776611
1706425588383345700,2.162345703125,1.0655604600906372,-3.2972488403320312,0.997158408164978
1706425588387363800,2.16636376953125,1.085892915725708,-3.484416961669922,1.0657119750976562
1706425588391382300,2.17038232421875,0.9320760369300842,-3.8380727767944336,1.1239643096923828
1706425588395400700,2.174400634765625,0.746691107749939,-4.353628158569336,1.1668031215667725
1706425588399419000,2.1784189453125,0.5138117074966431,-4.990751266479492,1.2683275938034058
1706425588403437300,2.182437255859375,0.12143777310848236,-5.073423385620117,0.9392359852790833
1706425588407456000,2.1864560546875,-0.4649663269519806,-4.343206405639648,-0.03242087364196777
1706425588411474400,2.190474365234375,-0.7011627554893494,-4.72182559967041,0.07069748640060425
1706425588415493000,2.1944931640625,-0.9638028740882874,-4.588803291320801,-0.4760551452636719
1706425588419511600,2.198511474609375,-1.2376850843429565,-3.8879165649414062,-1.317955493927002
1706425588423530000,2.202530029296875,-1.4117181301116943,-3.583475112915039,-1.512178659439087
1706425588427548700,2.206548583984375,-1.362565517425537,-3.050246238708496,-2.147876501083374
1706425588431567000,2.210567138671875,-1.2349344491958618,-2.3668718338012695,-3.0131847858428955
1706425588435585300,2.214585205078125,-1.0552400350570679,-2.0778398513793945,-3.4833602905273438
1706425588439603200,2.218603271484375,-0.9018436670303345,-1.9065656661987305,-3.7113213539123535
1706425588443620900,2.222620849609375,-0.9463037848472595,-1.6870336532592773,-3.9073266983032227
1706425588447639000,2.22663916015625,-1.0820748805999756,-1.263127326965332,-4.245224952697754
1706425588451657200,2.2306572265625,-1.092909574508667,-0.9476385116577148,-4.51114559173584
1706425588455676000,2.234676025390625,-0.9783248901367188,-0.7348012924194336,-4.656495094299316
1706425588459694600,2.238694580078125,-0.8576310873031616,-0.5138740539550781,-4.559724807739258
1706425588463713300,2.24271337890625,-0.6403415203094482,-0.26046085357666016,-4.517706394195557
1706425588467732000,2.24673193359375,-0.41302961111068726,-0.017218589782714844,-4.51345157623291
1706425588471750700,2.250750732421875,-0.24294859170913696,0.14202308654785156,-4.231616973876953
1706425588475769300,2.254769287109375,0.010970920324325562,0.2509422302246094,-3.8028855323791504
1706425588479787500,2.25878759765625,0.34593796730041504,0.38371753692626953,-3.340869903564453
1706425588483806000,2.262805908203125,0.7400751113891602,0.49952125549316406,-2.775042772293091
1706425588487824400,2.266824462890625,0.9564670920372009,0.6507368087768555,-1.925307273864746
1706425588491842600,2.270842529296875,1.2152167558670044,0.8704261779785156,-1.1406354904174805
1706425588495861000,2.274861083984375,1.396761417388916,1.0887393951416016,-0.2912486791610718
1706425588499879400,2.27887939453125,1.520445466041565,1.2622251510620117,0.5919694900512695
1706425588503897600,2.282897705078125,1.5815494060516357,1.404891014099121,1.3417551517486572
1706425588507916000,2.286916015625,1.6350866556167603,1.533219337463379,1.8873106241226196
1706425588511934200,2.290934326171875,1.5877968072891235,1.666107177734375,2.3470749855041504
1706425588515952600,2.29495263671875,1.5187534093856812,1.6933422088623047,2.7747631072998047
1706425588519971000,2.29897119140625,1.4730931520462036,1.7273359298706055,3.0568199157714844
1706425588523989200,2.3029892578125,1.4099698066711426,1.6794986724853516,3.2833900451660156
1706425588528007700,2.307007568359375,1.3196172714233398,1.569016456604004,3.424928903579712
1706425588532026400,2.3110263671875,1.2331293821334839,1.3720579147338867,3.4858059883117676
1706425588536044800,2.315044921875,1.176706314086914,1.198740005493164,3.4178097248077393
1706425588540063200,2.319063232421875,1.0903891324996948,1.0466804504394531,3.108956813812256
1706425588544081700,2.32308154296875,1.0098013877868652,0.832244873046875,2.7848775386810303
1706425588548099800,2.327099853515625,0.8798960447311401,0.6154165267944336,2.3816301822662354
1706425588552118300,2.3311181640625,0.7366745471954346,0.39870357513427734,1.9408262968063354
1706425588556136700,2.33513671875,0.5611382126808167,0.2347869873046875,1.4320818185806274
1706425588560155000,2.33915478515625,0.3872116804122925,0.11411571502685547,0.811049222946167
1706425588564173300,2.34317333984375,0.25840774178504944,0.05586814880371094,0.25602734088897705
1706425588568191500,2.34719140625,0.2084396779537201,-0.011714935302734375,-0.22748565673828125
1706425588572210000,2.3512099609375,0.1515166014432907,-0.0789785385131836,-0.5384560823440552
1706425588576228400,2.355228271484375,0.10946256667375565,-0.14349365234375,-0.836905837059021
1706425588580246800,2.359246826171875,0.07536974549293518,-0.18369770050048828,-1.117515206336975
1706425588584265200,2.36326513671875,0.08749090135097504,-0.21396923065185547,-1.3512864112854004
1706425588588283600,2.36728369140625,0.09794870018959045,-0.23671531677246094,-1.5237059593200684
1706425588592302000,2.371302001953125,0.14488133788108826,-0.22565937042236328,-1.5892183780670166
1706425588596320500,2.375320556640625,0.2281598150730133,-0.2072010040283203,-1.6436939239501953
1706425588600339000,2.3793388671875,0.3427812457084656,-0.2435741424560547,-1.6370248794555664
1706425588604357000,2.383357177734375,0.42168140411376953,-0.24388599395751953,-1.6197837591171265
1706425588608375300,2.387375244140625,0.4910339117050171,-0.23456668853759766,-1.6352834701538086
1706425588612393200,2.391393310546875,0.5579931735992432,-0.2228717803955078,-1.588029384613037
1706425588616411100,2.3954111328125,0.5888100266456604,-0.22083377838134766,-1.4474573135375977
1706425588620429300,2.39942919921875,0.6096992492675781,-0.24764728546142578,-1.2909120321273804
1706425588624447700,2.40344775390625,0.6445007920265198,-0.2626781463623047,-1.1429522037506104
1706425588628466400,2.407466552734375,0.6140609979629517,-0.23489856719970703,-1.0062658786773682
1706425588632484900,2.41148486328125,0.578432559967041,-0.23377227783203125,-0.8813151121139526
1706425588636503600,2.415503662109375,0.5614280700683594,-0.22818660736083984,-0.744504451751709
1706425588640522000,2.41952197265625,0.4962198734283447,-0.191864013671875,-0.6583648920059204
1706425588644540400,2.42354052734375,0.4425610899925232,-0.18703651428222656,-0.5681902170181274
1706425588648559000,2.42755908203125,0.35760536789894104,-0.15864276885986328,-0.5959458947181702
1706425588652577500,2.43157763671875,0.2869945764541626,-0.11867427825927734,-0.6409773826599121
1706425588656596200,2.43559619140625,0.21397246420383453,-0.1006174087524414,-0.5766333937644958
1706425588660614400,2.439614501953125,0.14830592274665833,-0.09725570678710938,-0.49656710028648376
1706425588664632300,2.44363232421875,0.116282619535923,-0.11811065673828125,-0.38670045137405396
1706425588668650200,2.447650146484375,0.041309088468551636,-0.15116310119628906,-0.333380788564682
1706425588672668200,2.451668212890625,0.014467984437942505,-0.16050434112548828,-0.31994152069091797
1706425588676686300,2.455686279296875,-0.038473546504974365,-0.172454833984375,-0.2938562333583832
1706425588680704800,2.459704833984375,-0.09828789532184601,-0.19415664672851562,-0.26729559898376465
1706425588684723500,2.463723388671875,-0.14344599843025208,-0.23273563385009766,-0.2379346489906311
1706425588688742100,2.4677421875,-0.2025821954011917,-0.24509620666503906,-0.2297770231962204
1706425588692760800,2.4717607421875,-0.24930015206336975,-0.2503852844238281,-0.2356550693511963
1706425588696779800,2.47577978515625,-0.2979423999786377,-0.2701091766357422,-0.2699534296989441
1706425588700798200,2.479798095703125,-0.35327544808387756,-0.2922658920288086,-0.24171268939971924
1706425588704816600,2.483816650390625,-0.3770526945590973,-0.3359508514404297,-0.24920961260795593
1706425588708834800,2.487834716796875,-0.39795050024986267,-0.33176326751708984,-0.2947063148021698
1706425588712852700,2.491852783203125,-0.39937302470207214,-0.358673095703125,-0.32563382387161255
1706425588716870700,2.49587060546875,-0.39806264638900757,-0.3711738586425781,-0.35388585925102234
1706425588720888600,2.499888671875,-0.39890432357788086,-0.3860139846801758,-0.38663944602012634
1706425588724906800,2.50390673828125,-0.40661075711250305,-0.38403987884521484,-0.4023839235305786
1706425588728925200,2.50792529296875,-0.4044674038887024,-0.425048828125,-0.4131258726119995
1706425588732944000,2.51194384765625,-0.4139973819255829,-0.4372091293334961,-0.4308921694755554
1706425588736962600,2.515962646484375,-0.4113209843635559,-0.4659996032714844,-0.4555864930152893
1706425588740981200,2.519981201171875,-0.40599125623703003,-0.5089807510375977,-0.4299927353858948
1706425588744999700,2.523999755859375,-0.38845890760421753,-0.5398063659667969,-0.4140228033065796
1706425588749018400,2.528018310546875,-0.3778761625289917,-0.5489253997802734,-0.40530991554260254
1706425588753037000,2.532037109375,-0.3526844382286072,-0.553105354309082,-0.40149229764938354
1706425588757055200,2.53605517578125,-0.31051284074783325,-0.5595254898071289,-0.3810170292854309
1706425588761073400,2.540073486328125,-0.2872907519340515,-0.5633935928344727,-0.3917607069015503
1706425588765091800,2.544091796875,-0.21844641864299774,-0.5360260009765625,-0.38575661182403564
1706425588769110000,2.548110107421875,-0.11142486333847046,-0.3531494140625,-0.5322970151901245
1706425588773128200,2.552128173828125,0.0024405792355537415,-0.14422893524169922,-0.7583715915679932
1706425588777146400,2.556146484375,0.07517734915018082,-0.009808540344238281,-0.9025277495384216
1706425588781164800,2.560164794921875,0.10677611082792282,0.057373046875,-0.8949225544929504
1706425588785183000,2.564182861328125,0.09735208749771118,0.04784965515136719,-0.7451239228248596
1706425588789201400,2.568201416015625,0.0518745481967926,0.02872467041015625,-0.513344407081604
1706425588793219600,2.572219482421875,-0.012647278606891632,-0.026285171508789062,-0.2621084451675415
1706425588797238000,2.576238037109375,-0.0792761817574501,-0.07883358001708984,-0.04439431428909302
1706425588801256400,2.58025634765625,-0.11209513992071152,-0.10020732879638672,0.14426055550575256
1706425588805275000,2.58427490234375,-0.1324964165687561,-0.13828086853027344,0.2822570204734802
1706425588809293300,2.588293212890625,-0.11901817470788956,-0.1475830078125,0.37435874342918396
1706425588813311700,2.592311767578125,-0.09330548346042633,-0.13772964477539062,0.4350549876689911
1706425588817330200,2.596330078125,-0.05783142149448395,-0.13984107971191406,0.4715311527252197
1706425588821348900,2.600348876953125,-0.029468238353729248,-0.10607051849365234,0.5030006766319275
1706425588825367300,2.6043671875,0.0061020627617836,-0.0938730239868164,0.5510379672050476
1706425588829386000,2.608385986328125,0.02257128432393074,-0.0625619888305664,0.563064455986023
1706425588833404400,2.612404296875,0.048549629747867584,-0.04325294494628906,0.58449387550354
1706425588837422800,2.6164228515625,0.03378855809569359,-0.01679706573486328,0.5842826962471008
1706425588841441300,2.620441162109375,0.0166405588388443,0.033539772033691406,0.5886895060539246
1706425588845459700,2.624459716796875,-0.017232343554496765,0.07662773132324219,0.57857346534729
1706425588849478000,2.628477783203125,-0.048579342663288116,0.1459636688232422,0.5299997925758362
1706425588853496300,2.632496337890625,-0.07740490138530731,0.2128009796142578,0.45744362473487854
1706425588857514500,2.636514404296875,-0.09882435947656631,0.2723560333251953,0.36337727308273315
1706425588861532700,2.64053271484375,-0.12247810512781143,0.32703590393066406,0.2621845006942749
1706425588865550800,2.64455078125,-0.14354121685028076,0.38880157470703125,0.1706807017326355
1706425588869569000,2.648569091796875,-0.14540669322013855,0.4050254821777344,0.0912628173828125
1706425588873587200,2.652587158203125,-0.15187948942184448,0.44752979278564453,0.002408444881439209
1706425588877605400,2.65660546875,-0.14398634433746338,0.4564847946166992,-0.08158135414123535
1706425588881623800,2.660623779296875,-0.15519309043884277,0.45107460021972656,-0.15106433629989624
1706425588885642200,2.664642333984375,-0.16872552037239075,0.4432821273803711,-0.2300437092781067
1706425588889660700,2.66866064453125,-0.17266851663589478,0.3996295928955078,-0.289783239364624
1706425588893679000,2.67267919921875,-0.18857744336128235,0.37756919860839844,-0.35179829597473145
1706425588897697500,2.676697509765625,-0.17809239029884338,0.36749839782714844,-0.4304119944572449
1706425588901716000,2.680716064453125,-0.18912239372730255,0.3526573181152344,-0.4729214906692505
1706425588905734400,2.684734375,-0.2024613618850708,0.3330507278442383,-0.5081257224082947
1706425588909752800,2.6887529296875,-0.20373938977718353,0.31824588775634766,-0.5215598940849304
1706425588913771300,2.692771240234375,-0.21208800375461578,0.31541919708251953,-0.5229722261428833
1706425588917790000,2.6967900390625,-0.20356062054634094,0.30780696868896484,-0.5027937889099121
1706425588921808400,2.700808349609375,-0.21156691014766693,0.29541683197021484,-0.4873448610305786
1706425588925827000,2.7048271484375,-0.18352043628692627,0.2950019836425781,-0.44326215982437134
1706425588929845500,2.708845458984375,-0.17681200802326202,0.28023624420166016,-0.4089003801345825
1706425588933864000,2.712864013671875,-0.16757497191429138,0.27745532989501953,-0.3746771812438965
1706425588937882400,2.71688232421875,-0.14141906797885895,0.2938117980957031,-0.35257214307785034
1706425588941900500,2.720900634765625,-0.10801278054714203,0.279052734375,-0.3066937327384949
1706425588945919000,2.7249189453125,-0.09128318727016449,0.3097572326660156,-0.2824798822402954
1706425588949937400,2.7289375,-0.05776114761829376,0.3260660171508789,-0.25360924005508423
1706425588953955600,2.73295556640625,-0.043065354228019714,0.3400306701660156,-0.220958411693573
1706425588957974000,2.73697412109375,-0.04991072416305542,0.37288761138916016,-0.19581788778305054
1706425588961992200,2.7409921875,-0.04253798723220825,0.3888425827026367,-0.16854363679885864
1706425588966010600,2.7450107421875,-0.05663613975048065,0.39041900634765625,-0.1392790675163269
1706425588970029000,2.749029052734375,-0.06831079721450806,0.37298107147216797,-0.11512699723243713
1706425588974047200,2.753047119140625,-0.09658324718475342,0.3604421615600586,-0.11263379454612732
1706425588978065700,2.757065673828125,-0.13417348265647888,0.33138370513916016,-0.11027970910072327
1706425588982083800,2.761083740234375,-0.17139802873134613,0.28594303131103516,-0.12002500891685486
1706425588986102300,2.765102294921875,-0.23433375358581543,0.21950244903564453,-0.13691264390945435
1706425588990120700,2.76912060546875,-0.2800725996494293,0.17262649536132812,-0.14917132258415222
1706425588994139000,2.773138916015625,-0.33700257539749146,0.09288978576660156,-0.2044508159160614
1706425588998157300,2.7771572265625,-0.3836733102798462,0.020944595336914062,-0.2547370493412018
1706425589002175500,2.781175537109375,-0.4366357624530792,-0.05040740966796875,-0.3499777913093567
1706425589006194000,2.78519384765625,-0.46025383472442627,-0.1259174346923828,-0.4256977438926697
1706425589010212400,2.78921240234375,-0.4760283827781677,-0.1770610809326172,-0.5674325227737427
1706425589014230500,2.79323046875,-0.47223037481307983,-0.22541427612304688,-0.6820282936096191
1706425589018249000,2.7972490234375,-0.46561211347579956,-0.26625919342041016,-0.8241808414459229
1706425589022267400,2.801267333984375,-0.43714725971221924,-0.29253292083740234,-0.9437766075134277
1706425589026285600,2.80528564453125,-0.3894985020160675,-0.28298282623291016,-1.0694255828857422
1706425589030304000,2.809303955078125,-0.33706948161125183,-0.2664165496826172,-1.196207046508789
1706425589034322700,2.81332275390625,-0.28950414061546326,-0.2666444778442383,-1.300398826599121
1706425589038341400,2.81734130859375,-0.23017320036888123,-0.25264549255371094,-1.3868993520736694
1706425589042360000,2.821360107421875,-0.14733245968818665,-0.236419677734375,-1.4723849296569824
1706425589046378200,2.825378173828125,-0.08876588940620422,-0.21323013305664062,-1.5521376132965088
1706425589050396000,2.82939599609375,0.0050979554653167725,-0.1760091781616211,-1.6261645555496216
1706425589054413800,2.833413818359375,0.07456138730049133,-0.14387989044189453,-1.66361403465271
1706425589058431700,2.837431640625,0.1529453992843628,-0.12391948699951172,-1.7028234004974365
1706425589062450000,2.841449951171875,0.22112923860549927,-0.09464645385742188,-1.7104575634002686
1706425589066468400,2.84546826171875,0.30049192905426025,-0.05851173400878906,-1.7651686668395996
1706425589070487000,2.849487060546875,0.3576699495315552,-0.027459144592285156,-1.7737419605255127
1706425589074505700,2.853505615234375,0.43773388862609863,0.0033197402954101562,-1.8007622957229614
1706425589078524700,2.857524658203125,0.4904857873916626,0.029076576232910156,-1.8364980220794678
1706425589082543400,2.86154345703125,0.53980952501297,0.06647586822509766,-1.8427307605743408
1706425589086562300,2.865562255859375,0.5452151298522949,0.11542224884033203,-1.8338474035263062
1706425589090580500,2.86958056640625,0.5189287662506104,0.14968109130859375,-1.8360517024993896
1706425589094598700,2.8735986328125,0.4374431073665619,0.18125152587890625,-1.8349874019622803
1706425589098617000,2.8776171875,0.3250895142555237,0.19114112854003906,-1.8069016933441162
1706425589102635300,2.88163525390625,0.18711504340171814,0.231781005859375,-1.76393461227417
1706425589106653400,2.8856533203125,0.061878055334091187,0.28152942657470703,-1.749049425125122
1706425589110671600,2.889671630859375,-0.0653069019317627,0.33068275451660156,-1.7860138416290283
1706425589114689800,2.893689697265625,-0.20412003993988037,0.41794490814208984,-1.8315283060073853
1706425589118708200,2.897708251953125,-0.30657199025154114,0.5312814712524414,-1.8519738912582397
1706425589122726400,2.901726318359375,-0.4274417757987976,0.6491022109985352,-1.885553240776062
1706425589126744800,2.905744873046875,-0.5473600625991821,0.7474660873413086,-1.8868000507354736
1706425589130763000,2.909762939453125,-0.6397372484207153,0.8502998352050781,-1.9083993434906006
1706425589134781400,2.913781494140625,-0.7187329530715942,0.9623403549194336,-1.9404840469360352
1706425589138799900,2.9177998046875,-0.7627818584442139,1.0405035018920898,-1.9854180812835693
1706425589142818300,2.921818359375,-0.810183584690094,1.1780967712402344,-1.8851146697998047
1706425589146837000,2.9258369140625,-0.9563307166099548,1.3486852645874023,-1.6014370918273926
1706425589150855400,2.92985546875,-1.75397789478302,1.4372520446777344,-0.8880919218063354
1706425589154873900,2.933873779296875,-1.5444810390472412,1.498758316040039,-0.774282693862915
1706425589158892300,2.937892333984375,-0.5456580519676208,1.5573978424072266,-1.0302720069885254
1706425589162910700,2.94191064453125,0.1599874198436737,1.4338884353637695,-1.313193440437317
1706425589166929200,2.94592919921875,0.4854047894477844,1.3055305480957031,-1.7731592655181885
1706425589170947600,2.949947509765625,0.5647357702255249,1.196213722229004,-1.933390498161316
1706425589174966000,2.953966064453125,0.682468831539154,1.1752891540527344,-1.91376793384552
1706425589178984400,2.957984375,0.7709988355636597,1.1350088119506836,-1.874786376953125
1706425589183003000,2.9620029296875,0.7176786065101624,1.025172233581543,-1.759039282798767
1706425589187021300,2.966021240234375,0.37702804803848267,0.8410606384277344,-1.7771217823028564
1706425589191039700,2.970039794921875,-0.09223240613937378,0.5754880905151367,-1.9547185897827148
1706425589195058200,2.97405810546875,-0.593552827835083,0.28585338592529297,-2.255483388900757
1706425589199076600,2.97807666015625,-1.2122389078140259,-0.016017913818359375,-2.707488536834717
1706425589203095000,2.982094970703125,-1.9257756471633911,-0.2561302185058594,-3.169114589691162
1706425589207113500,2.986113525390625,-2.5155081748962402,-0.5161190032958984,-3.680539131164551
1706425589211132000,2.9901318359375,-2.8830578327178955,-0.7746295928955078,-4.08582067489624
1706425589215150000,2.994150146484375,-3.000248670578003,-1.036576271057129,-4.468643665313721
1706425589219168500,2.99816845703125,-2.9633395671844482,-1.309279441833496,-4.62070894241333
1706425589223186700,3.002186767578125,-2.560338020324707,-1.599940299987793,-4.494739532470703
1706425589227204900,3.006204833984375,-1.9576438665390015,-1.8319244384765625,-4.125284671783447
1706425589231223000,3.01022314453125,-1.1732099056243896,-1.9860973358154297,-3.8816394805908203
1706425589235241500,3.014241455078125,-0.31816375255584717,-2.069657325744629,-3.730703353881836
1706425589239259600,3.018259765625,0.3962346017360687,-2.0947132110595703,-3.868438720703125
1706425589243277800,3.02227783203125,0.8166674375534058,-2.11405086517334,-3.9619133472442627
1706425589247296300,3.026296142578125,0.8788994550704956,-2.0799293518066406,-3.882091999053955
1706425589251314400,3.030314453125,0.9061896204948425,-2.069014549255371,-3.95719575881958
1706425589255332900,3.034332763671875,0.6392298936843872,-2.0215511322021484,-4.2251176834106445
1706425589259351000,3.03835107421875,0.08954489231109619,-1.897073745727539,-4.675745010375977
1706425589263369500,3.042369384765625,-0.4277472496032715,-1.662379264831543,-5.291799068450928
1706425589267388200,3.04638818359375,-1.429964542388916,-1.5115957260131836,-5.7212910652160645
1706425589271406600,3.050406494140625,-3.168449878692627,-1.4592370986938477,-6.026975631713867
1706425589275425300,3.05442529296875,-5.575925350189209,-1.4050254821777344,-5.968064785003662
1706425589279444200,3.0584443359375,-8.02107048034668,-1.425760269165039,-5.50062894821167
1706425589283462400,3.06246240234375,-9.52695369720459,-1.5858335494995117,-4.0430803298950195
1706425589287480600,3.06648046875,-9.220952033996582,-2.0825910568237305,-1.0999479293823242
1706425589291498800,3.070498779296875,-7.47404146194458,-2.626527786254883,2.4323463439941406
1706425589295516700,3.0745166015625,-5.110394477844238,-3.057570457458496,5.326562881469727
1706425589299534800,3.078534912109375,-2.3537442684173584,-3.381275177001953,7.43021297454834
1706425589303553300,3.08255322265625,0.5334179401397705,-3.474578857421875,8.705013275146484
1706425589307571700,3.08657177734375,3.133294105529785,-3.3540611267089844,9.236373901367188
1706425589311590100,3.090590087890625,5.239573955535889,-2.998532295227051,9.000517845153809
1706425589315608800,3.09460888671875,6.685591697692871,-2.5022363662719727,8.259231567382812
1706425589319627300,3.098627197265625,7.489925861358643,-1.968963623046875,7.271448135375977
1706425589323646000,3.10264599609375,7.631064414978027,-1.3566131591796875,6.111643314361572
1706425589327664400,3.106664306640625,7.1051483154296875,-0.7619380950927734,4.877924919128418
1706425589331682800,3.110682861328125,5.925652027130127,-0.10697650909423828,3.4098057746887207
1706425589335701500,3.114701416015625,4.290968418121338,0.5664196014404297,1.8388714790344238
1706425589339720000,3.118719970703125,2.2940802574157715,1.2164502143859863,0.3347444534301758
1706425589343738400,3.12273828125,0.4705030620098114,1.7848691940307617,-0.9050469398498535
1706425589347756800,3.1267568359375,-0.827204167842865,2.233048439025879,-1.74385404586792
1706425589351775000,3.13077490234375,-1.2212316989898682,2.496427059173584,-2.313753128051758
1706425589355793200,3.134793212890625,-0.911456286907196,2.5874433517456055,-2.409982204437256
1706425589359811000,3.13881103515625,-0.39699292182922363,2.4901084899902344,-2.067780017852783
1706425589363829000,3.1428291015625,0.1347220540046692,2.274703025817871,-1.724452018737793
1706425589367847200,3.14684716796875,0.45150405168533325,2.0520429611206055,-1.1205034255981445
1706425589371865300,3.150865234375,0.5924780368804932,1.8323183059692383,-0.27672529220581055
1706425589375884000,3.154884033203125,0.7333834171295166,1.6183247566223145,0.6190910339355469
1706425589379902700,3.15890283203125,0.7813272476196289,1.4247369766235352,1.0614972114562988
1706425589383921400,3.16292138671875,0.7708262205123901,1.3329615592956543,1.3810100555419922
1706425589387940000,3.166940185546875,0.7550193667411804,1.3835783004760742,1.5944857597351074
1706425589391958800,3.170958740234375,0.7818514108657837,1.4974360466003418,1.333763837814331
1706425589395977200,3.174977294921875,0.9248898029327393,1.6455836296081543,0.9156944751739502
1706425589399995400,3.178995361328125,1.099274754524231,1.7966461181640625,0.4941887855529785
1706425589404013800,3.183013916015625,1.2940318584442139,1.9312753677368164,0.31623077392578125
1706425589408032300,3.1870322265625,1.365020990371704,2.1019983291625977,0.19042062759399414
1706425589412050400,3.191050537109375,1.1883283853530884,2.0957117080688477,-0.16777276992797852
1706425589416068900,3.19506884765625,0.9963986873626709,2.159036636352539,-0.2580275535583496
1706425589420087300,3.19908740234375,0.7492390871047974,2.306342124938965,-0.05464982986450195
1706425589424105500,3.20310546875,0.33338889479637146,2.4060616493225098,0.1114964485168457
1706425589428124000,3.2071240234375,-0.12041294574737549,2.4511237144470215,0.18286371231079102
1706425589432142000,3.21114208984375,-0.573024570941925,2.417776107788086,0.1713237762451172
1706425589436160500,3.215160400390625,-1.033596158027649,2.2702856063842773,0.16301870346069336
1706425589440179000,3.219178955078125,-1.417966604232788,2.0662474632263184,0.12439155578613281
1706425589444197000,3.223197021484375,-1.7310898303985596,1.8033514022827148,0.07463264465332031
1706425589448215600,3.227215576171875,-1.9684160947799683,1.5199575424194336,0.00898599624633789
1706425589452233700,3.231233642578125,-2.1758651733398438,1.2591276168823242,-0.09158515930175781
1706425589456252200,3.235252197265625,-2.3464527130126953,1.0016183853149414,-0.20298004150390625
1706425589460270600,3.2392705078125,-2.4829859733581543,0.7521119117736816,-0.3226046562194824
1706425589464288800,3.243288818359375,-2.521420478820801,0.5057554244995117,-0.37854671478271484
1706425589468307200,3.24730712890625,-2.486452341079712,0.2888622283935547,-0.4282512664794922
1706425589472325600,3.25132568359375,-2.4051899909973145,0.08938026428222656,-0.5265903472900391
1706425589476343800,3.25534375,-2.266521453857422,-0.09515380859375,-0.5848126411437988
1706425589480362200,3.2593623046875,-2.1048150062561035,-0.2815103530883789,-0.5502204895019531
1706425589484380400,3.26338037109375,-1.8920565843582153,-0.4003152847290039,-0.5783228874206543
1706425589488398800,3.26739892578125,-1.7220748662948608,-0.4708585739135742,-0.6305713653564453
1706425589492417300,3.271417236328125,-1.587859869003296,-0.5172615051269531,-0.6707735061645508
1706425589496435500,3.275435546875,-1.5561734437942505,-0.47269439697265625,-0.7250556945800781
1706425589500454000,3.279453857421875,-1.6145180463790894,-0.3923978805541992,-0.728693962097168
1706425589504472000,3.28347216796875,-1.7478549480438232,-0.30284976959228516,-0.6936001777648926
1706425589508490500,3.287490478515625,-1.9508228302001953,-0.1729135513305664,-0.6175837516784668
1706425589512509000,3.291509033203125,-2.098459482192993,-0.02409839630126953,-0.5224165916442871
1706425589516527600,3.295527587890625,-2.2120680809020996,0.11973857879638672,-0.4370307922363281
1706425589520546000,3.299546142578125,-2.253143310546875,0.30416393280029297,-0.42862415313720703
1706425589524564500,3.303564453125,-2.205292224884033,0.48374319076538086,-0.4373655319213867
1706425589528583000,3.3075830078125,-2.1024513244628906,0.6609692573547363,-0.4944295883178711
1706425589532601600,3.3116015625,-1.9044702053070068,0.8167762756347656,-0.5734729766845703
1706425589536620300,3.315620361328125,-1.69090735912323,0.9488105773925781,-0.6193704605102539
1706425589540638700,3.319638671875,-1.429064154624939,1.0810966491699219,-0.6775913238525391
1706425589544657000,3.323656982421875,-1.236802339553833,1.1777353286743164,-0.7216696739196777
1706425589548675000,3.327675048828125,-1.1097933053970337,1.2554798126220703,-0.7394881248474121
1706425589552693200,3.331693359375,-1.1223046779632568,1.314307689666748,-0.6926870346069336
1706425589556711400,3.33571142578125,-1.142543911933899,1.3350677490234375,-0.6458840370178223
1706425589560729600,3.3397294921875,-1.3018933534622192,1.3176774978637695,-0.5127787590026855
1706425589564748000,3.343748046875,-1.5324110984802246,1.2884840965270996,-0.34622621536254883
1706425589568766500,3.347766357421875,-1.7639747858047485,1.1996889114379883,-0.09380960464477539
1706425589572785200,3.35178515625,-1.9287642240524292,1.1087818145751953,0.2346487045288086
1706425589576803600,3.355803466796875,-2.061998128890991,0.9584922790527344,0.5597414970397949
1706425589580822000,3.359822021484375,-2.137000322341919,0.8159537315368652,0.8621554374694824
1706425589584840700,3.3638408203125,-2.151217460632324,0.6693058013916016,1.08189058303833
1706425589588859100,3.367859130859375,-2.0976736545562744,0.49949169158935547,1.2476615905761719
1706425589592877600,3.371877685546875,-1.986343502998352,0.3519926071166992,1.3595991134643555
1706425589596896000,3.37589599609375,-1.8128185272216797,0.21729660034179688,1.4798858165740967
1706425589600914400,3.37991455078125,-1.5945942401885986,0.1074991226196289,1.5772738456726074
1706425589604932900,3.383932861328125,-1.3033627271652222,0.0035076141357421875,1.6493234634399414
1706425589608951300,3.387951416015625,-1.051990270614624,-0.05628776550292969,1.727022647857666
1706425589612969500,3.391969482421875,-0.7782739400863647,-0.07419776916503906,1.8053460121154785
1706425589616987600,3.395987548828125,-0.5779463648796082,-0.04300880432128906,1.879347324371338
1706425589621006000,3.400006103515625,-0.23302215337753296,0.010968208312988281,1.9105803966522217
1706425589625024300,3.404024169921875,0.31368717551231384,0.10205268859863281,1.932586431503296
1706425589629042400,3.40804248046875,1.1595929861068726,0.2134571075439453,1.9071128368377686
1706425589633060600,3.412060546875,2.2101025581359863,0.304473876953125,1.7793006896972656
1706425589637078800,3.416078857421875,3.4065101146698,0.3654212951660156,1.6046204566955566
1706425589641097200,3.42009716796875,4.52501916885376,0.33167457580566406,1.4192068576812744
1706425589645115400,3.424115478515625,5.383396148681641,0.1314373016357422,1.2998225688934326
1706425589649133800,3.4281337890625,5.762019634246826,-0.2542543411254883,1.3132643699645996
1706425589653152300,3.43215234375,5.585811138153076,-0.8323116302490234,1.4423034191131592
1706425589657170700,3.436170654296875,4.906511306762695,-1.511526107788086,1.6457910537719727
1706425589661189400,3.440189453125,3.886009454727173,-2.2008256912231445,1.875495433807373
1706425589665207800,3.444207763671875,2.699890613555908,-2.9408111572265625,2.092833995819092
1706425589669226200,3.448226318359375,1.3344889879226685,-3.709962844848633,2.3600094318389893
1706425589673245000,3.452244873046875,-0.25455552339553833,-4.678128242492676,2.6313719749450684
1706425589677263400,3.456263427734375,-2.0770697593688965,-5.706316947937012,2.7392890453338623
1706425589681282000,3.460281982421875,-4.024621486663818,-6.545877456665039,2.5717852115631104
1706425589685300500,3.464300537109375,-5.417198657989502,-6.967723846435547,1.9766755104064941
1706425589689318700,3.468318603515625,-5.304442882537842,-6.829583168029785,0.9200944900512695
1706425589693337000,3.472337158203125,-3.890275001525879,-6.097088813781738,-0.20564508438110352
1706425589697355300,3.476355224609375,-2.37502384185791,-5.154447555541992,-0.9563055038452148
1706425589701373400,3.48037353515625,-1.2734177112579346,-4.279736518859863,-1.1377520561218262
1706425589705391600,3.4843916015625,-0.6877651810646057,-3.549239158630371,-0.8106703758239746
1706425589709409800,3.488409912109375,-0.45881709456443787,-2.9622812271118164,-0.15119552612304688
1706425589713428200,3.49242822265625,-0.4099997282028198,-2.475025177001953,0.48264122009277344
1706425589717446400,3.4964462890625,-0.4117002487182617,-2.027080535888672,0.9679322242736816
1706425589721464600,3.500464599609375,-0.31446290016174316,-1.622941017150879,1.2923583984375
1706425589725483000,3.50448291015625,-0.11458772420883179,-1.2241487503051758,1.4630067348480225
1706425589729501400,3.50850146484375,0.13156698644161224,-0.8905315399169922,1.5614476203918457
1706425589733520000,3.512519775390625,0.37219545245170593,-0.5478973388671875,1.7099192142486572
1706425589737538300,3.516538330078125,0.5836085677146912,-0.2967567443847656,1.870138168334961
1706425589741556700,3.520556640625,0.770859956741333,-0.04846000671386719,2.1114773750305176
1706425589745575400,3.524575439453125,0.9984256029129028,0.13248825073242188,2.3571083545684814
1706425589749593900,3.52859375,1.2302571535110474,0.27982521057128906,2.6090800762176514
1706425589753612500,3.532612548828125,1.442007303237915,0.3984947204589844,2.8408043384552
1706425589757631000,3.536630859375,1.650028944015503,0.4360179901123047,3.016129970550537
1706425589761649400,3.5406494140625,1.8632268905639648,0.4667654037475586,3.1587822437286377
1706425589765667800,3.544667724609375,2.0594563484191895,0.47886180877685547,3.2374660968780518
1706425589769686000,3.54868603515625,2.1377527713775635,0.44850730895996094,3.3715720176696777
1706425589773704200,3.5527041015625,2.179222583770752,0.4284029006958008,3.3527815341949463
1706425589777722400,3.556722412109375,2.1526970863342285,0.44239234924316406,3.3560099601745605
1706425589781740500,3.560740478515625,2.0916669368743896,0.4760284423828125,3.2759954929351807
1706425589785759000,3.564759033203125,1.9340825080871582,0.5219879150390625,3.194403648376465
1706425589789777400,3.56877734375,1.7641711235046387,0.6207828521728516,3.1043596267700195
1706425589793795600,3.572795654296875,1.6086037158966064,0.7482805252075195,3.020547389984131
1706425589797814000,3.57681396484375,1.481968879699707,0.8803844451904297,2.869110107421875
1706425589801832200,3.580832275390625,1.3677222728729248,1.0049686431884766,2.7127327919006348
1706425589805850600,3.5848505859375,1.2803434133529663,1.0454216003417969,2.5635576248168945
1706425589809869000,3.588869140625,1.2484968900680542,1.0615949630737305,2.3739013671875
1706425589813887200,3.59288720703125,1.2982800006866455,1.0295286178588867,2.124863624572754
1706425589817905700,3.59690576171875,1.3551007509231567,0.9444217681884766,1.8789219856262207
1706425589821924400,3.60092431640625,1.40891432762146,0.8350582122802734,1.6934601068496704
1706425589825942800,3.60494287109375,1.4543168544769287,0.7158336639404297,1.5109169483184814
1706425589829961200,3.608961181640625,1.538635492324829,0.5652132034301758,1.218827486038208
1706425589833980000,3.61297998046875,1.6562467813491821,0.43102550506591797,0.9107394218444824
1706425589837998300,3.616998291015625,1.6987888813018799,0.3036165237426758,0.6250503063201904
1706425589842017000,3.62101708984375,1.65633225440979,0.2068634033203125,0.45267724990844727
1706425589846035500,3.625035400390625,1.5982799530029297,0.15266704559326172,0.12313008308410645
1706425589850054000,3.629053955078125,1.4648020267486572,0.14571762084960938,-0.1862938404083252
1706425589854072300,3.633072265625,1.2445029020309448,0.0878591537475586,-0.37272214889526367
1706425589858090500,3.637090576171875,0.9118466377258301,0.02464580535888672,-0.39571642875671387
1706425589862109000,3.64110888671875,0.5325673222541809,0.008819580078125,-0.4853546619415283
1706425589866127400,3.64512744140625,0.11268091201782227,0.0140838623046875,-0.5698342323303223
1706425589870145500,3.6491455078125,-0.332139790058136,0.03814983367919922,-0.5129351615905762
1706425589874164000,3.6531640625,-0.738455057144165,0.12651824951171875,-0.5539703369140625
1706425589878182400,3.657182373046875,-1.0644745826721191,0.22414207458496094,-0.5586264133453369
1706425589882200600,3.66120068359375,-1.2495174407958984,0.39565563201904297,-0.6032652854919434
1706425589886219000,3.665218994140625,-1.3123656511306763,0.6026973724365234,-0.5631515979766846
1706425589890237200,3.6692373046875,-1.2433431148529053,0.7806396484375,-0.5075538158416748
1706425589894255600,3.673255615234375,-1.0593912601470947,0.9534778594970703,-0.44365429878234863
1706425589898274000,3.677274169921875,-0.7659719586372375,1.1307506561279297,-0.4239938259124756
1706425589902292200,3.681292236328125,-0.36378511786460876,1.3052806854248047,-0.3505256175994873
1706425589906310700,3.685310546875,0.05052661895751953,1.4196624755859375,-0.29054760932922363
1706425589910328800,3.689328857421875,0.5118866562843323,1.495460033416748,-0.2561016082763672
1706425589914347300,3.69334716796875,0.9786827564239502,1.5399084091186523,-0.24027371406555176
1706425589918365700,3.69736572265625,1.402207374572754,1.5673913955688477,-0.23131561279296875
1706425589922384000,3.7013837890625,1.7983415126800537,1.5611228942871094,-0.2914772033691406
1706425589926402300,3.70540234375,2.1138296127319336,1.5115127563476562,-0.43976640701293945
1706425589930420700,3.709420654296875,2.30513858795166,1.4113969802856445,-0.6138815879821777
1706425589934439000,3.71343896484375,2.386514663696289,1.2703475952148438,-0.8854045867919922
1706425589938457300,3.717457275390625,2.338801860809326,1.095515251159668,-1.1916890144348145
1706425589942475500,3.7214755859375,2.28897762298584,0.953887939453125,-1.4655048847198486
1706425589946494000,3.725493896484375,2.270357608795166,0.8597650527954102,-1.62074613571167
1706425589950512400,3.729512451171875,2.21103572845459,0.7819900512695312,-1.7317912578582764
1706425589954530600,3.733530517578125,2.1637070178985596,0.7301578521728516,-1.7845704555511475
1706425589958549000,3.737549072265625,2.0733203887939453,0.7234249114990234,-1.796165943145752
1706425589962567200,3.741567138671875,1.9664041996002197,0.7498006820678711,-1.7763224840164185
1706425589966585600,3.745585693359375,1.764265775680542,0.8140811920166016,-1.7276716232299805
1706425589970604000,3.74960400390625,1.5487077236175537,0.85882568359375,-1.6670310497283936
1706425589974622700,3.753622802734375,1.3274827003479004,0.9128551483154297,-1.6041749715805054
1706425589978641400,3.757641357421875,1.1415432691574097,0.9450912475585938,-1.5966074466705322
1706425589982660000,3.76166015625,0.9337761402130127,0.9579811096191406,-1.5533353090286255
1706425589986678500,3.765678466796875,0.7450867891311646,0.9300222396850586,-1.5126121044158936
1706425589990697200,3.769697265625,0.6304361820220947,0.8803787231445312,-1.4958679676055908
1706425589994715600,3.773715576171875,0.5225356817245483,0.7348546981811523,-1.4550724029541016
1706425589998733800,3.77773388671875,0.40926802158355713,0.5700836181640625,-1.320744276046753
1706425590002752300,3.781752197265625,0.27355265617370605,0.3358335494995117,-1.121894359588623
1706425590006770700,3.785770751953125,0.10331642627716064,0.08481121063232422,-0.9806911945343018
1706425590010788900,3.789788818359375,-0.09184765815734863,-0.2021026611328125,-0.7224910259246826
1706425590014807300,3.793807373046875,-0.4432978630065918,-0.48891353607177734,-0.3931615352630615
1706425590018825500,3.797825439453125,-0.9407511353492737,-0.7779302597045898,0.00945734977722168
1706425590022844000,3.801843994140625,-1.4685074090957642,-1.0809717178344727,0.37970244884490967
1706425590026862300,3.8058623046875,-2.013780117034912,-1.3859176635742188,0.7533272504806519
1706425590030880500,3.809880615234375,-2.499194622039795,-1.7045707702636719,1.0631113052368164
1706425590034899000,3.81389892578125,-2.969542980194092,-1.9626264572143555,1.3330656290054321
1706425590038917000,3.817917236328125,-3.41214656829834,-2.181565284729004,1.6732511520385742
1706425590042935600,3.821935546875,-3.795161724090576,-2.339754104614258,1.9375264644622803
1706425590046954000,3.8259541015625,-4.032031536102295,-2.437180519104004,2.1235785484313965
1706425590050972200,3.82997216796875,-4.077224254608154,-2.4619064331054688,2.1453280448913574
1706425590054990600,3.833990478515625,-3.9000988006591797,-2.426025390625,2.048434019088745
1706425590059009000,3.838009033203125,-3.5657382011413574,-2.3463878631591797,1.8736035823822021
1706425590063027200,3.842027099609375,-3.0990734100341797,-2.1610116958618164,1.5349406003952026
1706425590067045600,3.846045654296875,-2.5034236907958984,-1.8892908096313477,1.0301311016082764
1706425590071063800,3.850063720703125,-1.8396530151367188,-1.517160415649414,0.3404202461242676
1706425590075082200,3.854082275390625,-1.2091548442840576,-1.095200538635254,-0.4065922498703003
1706425590079100700,3.8581005859375,-0.6913914680480957,-0.7097358703613281,-1.095644474029541
1706425590083118800,3.862118896484375,-0.2482602596282959,-0.3847541809082031,-1.7286595106124878
1706425590087137300,3.86613720703125,0.08678627014160156,-0.11545848846435547,-2.278794765472412
1706425590091155700,3.87015576171875,0.3306344747543335,0.047944068908691406,-2.7265405654907227
1706425590095174100,3.874174072265625,0.5169726610183716,0.13668060302734375,-3.0788214206695557
1706425590099192600,3.878192626953125,0.6530677080154419,0.1580181121826172,-3.366574287414551
1706425590103211000,3.8822109375,0.7172659635543823,0.1359577178955078,-3.4654219150543213
1706425590107229400,3.8862294921875,0.7788349390029907,0.04662799835205078,-3.6867446899414062
1706425590111248000,3.890247802734375,0.8494536876678467,-0.0572509765625,-3.789015054702759
1706425590115266300,3.894266357421875,0.9213075637817383,-0.16374969482421875,-3.887543201446533
1706425590119284700,3.89828466796875,0.8958591222763062,-0.2035074234008789,-4.030519485473633
1706425590123303200,3.90230322265625,0.7875081300735474,-0.22922897338867188,-4.20371675491333
1706425590127321600,3.906321533203125,0.5965393781661987,-0.24568939208984375,-4.385499000549316
1706425590131340000,3.910340087890625,0.35456812381744385,-0.22890949249267578,-4.5375213623046875
1706425590135358700,3.914358642578125,0.09812986850738525,-0.1764678955078125,-4.716952323913574
1706425590139377200,3.918377197265625,-0.13630712032318115,-0.1242218017578125,-4.904334545135498
1706425590143395600,3.9223955078125,-0.3076440095901489,-0.08167743682861328,-5.037297248840332
1706425590147414000,3.9264140625,-0.4324840307235718,-0.02965068817138672,-5.16837215423584
1706425590151432200,3.93043212890625,-0.5346236228942871,0.01752185821533203,-5.28311014175415
1706425590155450400,3.934450439453125,-0.5470643043518066,0.035935401916503906,-5.336052417755127
1706425590159468800,3.93846875,-0.5393087863922119,0.06631183624267578,-5.423076629638672
1706425590163487000,3.942487060546875,-0.4853546619415283,0.10860824584960938,-5.44865608215332
1706425590167505200,3.946505126953125,-0.4428192973136902,0.1747722625732422,-5.468145847320557
1706425590171523300,3.9505234375,-0.39501863718032837,0.24802589416503906,-5.472091197967529
1706425590175541500,3.95454150390625,-0.3492854833602905,0.36902618408203125,-5.441617488861084
1706425590179560000,3.958559814453125,-0.33898353576660156,0.5090322494506836,-5.312335014343262
1706425590183578000,3.962578125,-0.3400167226791382,0.6704320907592773,-5.211171627044678
1706425590187596500,3.966596435546875,-0.3329821825027466,0.8556203842163086,-5.047114372253418
1706425590191615000,3.970614990234375,-0.32226669788360596,1.023940086364746,-4.908594131469727
1706425590195633400,3.97463330078125,-0.29315185546875,1.1515083312988281,-4.749567985534668
1706425590199652000,3.978652099609375,-0.2500119209289551,1.2001218795776367,-4.6198577880859375
1706425590203670500,3.98267041015625,-0.2093064785003662,1.1531476974487305,-4.586115837097168
1706425590207689000,3.98668896484375,-0.13264620304107666,0.9556589126586914,-4.681332111358643
1706425590211707400,3.990707275390625,-0.015346407890319824,0.6747837066650391,-4.869056224822998
1706425590215726000,3.99472607421875,0.2018979787826538,0.37033653259277344,-5.096120357513428
1706425590219744500,3.99874462890625,0.5015463829040527,0.039841651916503906,-5.202091693878174
1706425590223763200,4.00276318359375,0.8205393552780151,-0.26894378662109375,-5.311403274536133
1706425590227781600,4.00678173828125,1.1125853061676025,-0.5394134521484375,-5.431290626525879
1706425590231800000,4.010800048828125,1.3960957527160645,-0.7525806427001953,-5.518764972686768
1706425590235818200,4.014818359375,1.6226458549499512,-0.8559627532958984,-5.554827690124512
1706425590239836400,4.01883642578125,1.8299872875213623,-0.8521623611450195,-5.4799065589904785
1706425590243854800,4.022854736328125,1.976983666419983,-0.7198162078857422,-5.210860252380371
1706425590247873000,4.026873046875,1.9965412616729736,-0.540435791015625,-5.06173038482666
1706425590251891200,4.03089111328125,1.86252760887146,-0.27579212188720703,-4.81967830657959
1706425590255909400,4.034909423828125,1.53243088722229,-0.016882896423339844,-4.554204940795898
1706425590259927600,4.038927490234375,1.050398826599121,0.21962833404541016,-4.26063871383667
1706425590263946000,4.042946044921875,0.5131776332855225,0.4386100769042969,-4.001112937927246
1706425590267964200,4.046964111328125,-0.10471576452255249,0.6568880081176758,-3.7540712356567383
1706425590271982600,4.050982666015625,-0.7328411340713501,0.8362417221069336,-3.5409579277038574
1706425590276001000,4.0550009765625,-1.344224452972412,1.0006837844848633,-3.3426568508148193
1706425590280019500,4.05901953125,-2.012533664703369,1.147822380065918,-3.240236282348633
1706425590284038100,4.0630380859375,-2.739720344543457,1.2561025619506836,-3.1400206089019775
1706425590288056800,4.067056884765625,-3.52526593208313,1.3039836883544922,-3.077599048614502
1706425590292075500,4.071075439453125,-4.349311351776123,1.3010063171386719,-3.0690054893493652
1706425590296094200,4.07509423828125,-5.12021017074585,1.1681451797485352,-3.0991485118865967
1706425590300112400,4.0791123046875,-5.748682498931885,0.9101524353027344,-3.0881361961364746
1706425590304130800,4.083130859375,-6.284389972686768,0.5054206848144531,-3.028125762939453
1706425590308149000,4.08714892578125,-6.568705081939697,-0.07005977630615234,-2.904167890548706
1706425590312167400,4.09116748046875,-6.551583290100098,-0.7900896072387695,-2.6777098178863525
1706425590316185900,4.095185791015625,-6.130899429321289,-1.6309547424316406,-2.3318963050842285
1706425590320204000,4.0992041015625,-5.363403797149658,-2.6119775772094727,-1.8840230703353882
1706425590324222500,4.103222412109375,-4.45929479598999,-3.606447219848633,-1.41145658493042
1706425590328241000,4.107240966796875,-3.4851396083831787,-4.5738325119018555,-0.8792760372161865
1706425590332259300,4.11125927734375,-2.5645339488983154,-5.475870132446289,-0.25528955459594727
1706425590336277800,4.11527783203125,-1.6316940784454346,-6.331591606140137,0.4277839660644531
1706425590340296200,4.119296142578125,-0.7020688056945801,-7.030743598937988,1.089607834815979
1706425590344314600,4.123314697265625,0.20683962106704712,-7.604248046875,1.7575454711914062
1706425590348332800,4.127332763671875,1.0754358768463135,-7.972931861877441,2.375459909439087
1706425590352351000,4.13135107421875,1.7622116804122925,-8.203612327575684,3.002228021621704
1706425590356369200,4.135369140625,2.2267282009124756,-8.291216850280762,3.5914011001586914
1706425590360387600,4.1393876953125,2.574760913848877,-8.285719871520996,4.137441635131836
1706425590364405800,4.14340576171875,2.787590265274048,-8.23228645324707,4.5823822021484375
1706425590368424000,4.147423828125,2.8990213871002197,-8.18083381652832,5.031094074249268
1706425590372442000,4.151442138671875,2.914332866668701,-8.020940780639648,5.3874406814575195
1706425590376460500,4.15546044921875,2.931760311126709,-7.819492340087891,5.620348930358887
1706425590380478700,4.159478759765625,2.9897494316101074,-7.504622459411621,5.773167133331299
1706425590384497400,4.163497314453125,2.939893960952759,-7.0954742431640625,5.807828903198242
1706425590388515800,4.167515869140625,2.784738302230835,-6.544264793395996,5.696045875549316
1706425590392534300,4.1715341796875,2.6487770080566406,-5.803398132324219,5.414615631103516
1706425590396553000,4.175552978515625,2.54628324508667,-4.932924270629883,5.002325534820557
1706425590400571400,4.1795712890625,2.4580020904541016,-4.052663803100586,4.552989482879639
1706425590404590000,4.183590087890625,2.457976818084717,-3.2391538619995117,4.184030055999756
1706425590408608500,4.1876083984375,2.641531229019165,-2.4348573684692383,3.64905047416687
1706425590412627200,4.191627197265625,2.964824914932251,-1.615952491760254,2.9152567386627197
1706425590416645600,4.195645751953125,3.188410520553589,-0.9143762588500977,1.8689384460449219
1706425590420663800,4.199663818359375,3.3315625190734863,-0.17253589630126953,0.8249993324279785
1706425590424682200,4.20368212890625,3.344132423400879,0.4943428039550781,0.2603137493133545
1706425590428700400,4.207700439453125,3.1185758113861084,1.0552034378051758,0.04519033432006836
1706425590432718800,4.21171875,2.947253942489624,1.5793299674987793,-0.5715732574462891
1706425590436737300,4.2157373046875,2.9159579277038574,2.1093177795410156,-1.6625685691833496
1706425590440755500,4.21975537109375,2.8041462898254395,2.711482048034668,-2.4172444343566895
1706425590444774000,4.22377392578125,2.2367639541625977,3.2417545318603516,-2.7539873123168945
1706425590448792000,4.2277919921875,1.727384090423584,3.692793369293213,-2.7902941703796387
1706425590452810500,4.231810546875,1.2792571783065796,4.000054359436035,-2.493208408355713
1706425590456829000,4.235828857421875,1.1037278175354004,4.295432090759277,-2.203350067138672
1706425590460847000,4.23984716796875,0.9832122921943665,4.512085914611816,-1.8876500129699707
1706425590464865500,4.243865478515625,0.8058645129203796,4.6552324295043945,-1.3028836250305176
1706425590468884000,4.247884033203125,0.4362768530845642,4.6775617599487305,-0.12254667282104492
1706425590472902100,4.251902099609375,-0.006581902503967285,4.410262107849121,1.5504605770111084
1706425590476920600,4.255920654296875,-0.3416464328765869,4.017289638519287,2.9531779289245605
1706425590480938800,4.259938720703125,-0.47464820742607117,3.707552433013916,4.039582252502441
1706425590484957200,4.263957275390625,-0.42216452956199646,3.51007080078125,4.766477584838867
1706425590488975600,4.2679755859375,-0.2966640591621399,3.427175998687744,5.02907657623291
1706425590492993800,4.271993896484375,-0.22955960035324097,3.4369421005249023,4.893107891082764
1706425590497012200,4.27601220703125,-0.1130061224102974,3.507732391357422,4.512959957122803
1706425590501030700,4.28003076171875,0.2104671597480774,3.5622825622558594,4.107721328735352
1706425590505049000,4.284049072265625,0.6535760164260864,3.554734230041504,3.816864490509033
1706425590509067500,4.288067626953125,1.097676157951355,3.5015869140625,3.6288063526153564
1706425590513086000,4.2920859375,1.5678539276123047,3.426671028137207,3.495800256729126
1706425590517104400,4.2961044921875,2.0293827056884766,3.3203277587890625,3.379695177078247
1706425590521122800,4.300122802734375,2.397737503051758,3.165925979614258,3.3473494052886963
1706425590525141200,4.304141357421875,2.68186616897583,3.0163211822509766,3.3362390995025635
1706425590529159700,4.30815966796875,2.8934104442596436,2.8574485778808594,3.3650588989257812
1706425590533178000,4.31217822265625,3.1086440086364746,2.720752716064453,3.4739809036254883
1706425590537196500,4.316196533203125,3.3413591384887695,2.546570301055908,3.4880785942077637
1706425590541215000,4.320215087890625,3.562112808227539,2.320816993713379,3.5244860649108887
1706425590545233400,4.3242333984375,3.7388863563537598,2.0867886543273926,3.6046156883239746
1706425590549252000,4.328252197265625,3.8969812393188477,1.8255386352539062,3.74985408782959
1706425590553270500,4.3322705078125,4.01146125793457,1.5683841705322266,3.9217636585235596
1706425590557289000,4.3362890625,4.038283348083496,1.2891902923583984,4.194387435913086
1706425590561307100,4.34030712890625,4.020119667053223,0.9881978034973145,4.500423431396484
1706425590565325600,4.34432568359375,3.935434341430664,0.6320562362670898,4.775122165679932
1706425590569344000,4.348343994140625,3.7774267196655273,0.2591390609741211,5.059160232543945
1706425590573362200,4.352362060546875,3.542388439178467,-0.09943675994873047,5.400300025939941
1706425590577380600,4.356380615234375,3.2911312580108643,-0.42453432083129883,5.836639404296875
1706425590581398800,4.360398681640625,3.014954090118408,-0.6897830963134766,6.253001689910889
1706425590585417200,4.364417236328125,2.760043144226074,-0.8665237426757812,6.656475067138672
1706425590589435600,4.368435546875,2.5105621814727783,-0.9310107231140137,6.980094909667969
1706425590593453800,4.372453857421875,2.238619327545166,-0.9074077606201172,7.238380432128906
1706425590597472300,4.37647216796875,1.98796546459198,-0.7218422889709473,7.434008598327637
1706425590601490700,4.38049072265625,1.692033290863037,-0.4655885696411133,7.643807411193848
1706425590605508900,4.3845087890625,1.4207088947296143,-0.17957830429077148,7.853616714477539
1706425590609527300,4.38852734375,1.1408252716064453,0.11220312118530273,8.073016166687012
1706425590613545500,4.39254541015625,0.7641882300376892,0.34772777557373047,8.363922119140625
1706425590617564000,4.39656396484375,0.44663840532302856,0.4890899658203125,8.713826179504395
1706425590621582300,4.400582275390625,0.12363246083259583,0.5894613265991211,9.066997528076172
1706425590625600500,4.4046005859375,-0.054136306047439575,0.7041454315185547,9.12401008605957
1706425590629619000,4.408618896484375,-0.1445208191871643,0.761439323425293,9.08362865447998
1706425590633637000,4.41263720703125,-0.29130029678344727,0.7876472473144531,8.984310150146484
1706425590637655600,4.416655517578125,-0.6882567405700684,0.7420778274536133,8.94096565246582
1706425590641674000,4.420674072265625,-1.2773959636688232,0.6916971206665039,8.771774291992188
1706425590645692200,4.424692138671875,-2.079482078552246,0.6410560607910156,8.367096900939941
1706425590649710600,4.428710693359375,-3.2486884593963623,0.5251369476318359,7.744528293609619
1706425590653729300,4.432729248046875,-4.6298089027404785,0.42472219467163086,6.3956732749938965
1706425590657747700,4.436747802734375,-6.175669193267822,0.3555755615234375,4.459306240081787
1706425590661766100,4.44076611328125,-8.144791603088379,0.25449275970458984,2.437737464904785
1706425590665784600,4.44478466796875,-10.677053451538086,-0.02518177032470703,0.770111083984375
1706425590669803000,4.448802978515625,-12.830771446228027,-0.5099954605102539,-0.6654133796691895
1706425590673821400,4.452821533203125,-13.753997802734375,-1.075531005859375,-1.9574980735778809
1706425590677840000,4.45683984375,-13.144408226013184,-1.6693592071533203,-3.448227882385254
1706425590681858300,4.4608583984375,-11.387106895446777,-2.2629013061523438,-4.988824367523193
1706425590685876700,4.464876708984375,-8.407334327697754,-2.8417863845825195,-6.475980281829834
1706425590689895200,4.468895263671875,-4.7266764640808105,-3.140315055847168,-8.277570724487305
1706425590693913600,4.47291357421875,-0.888995349407196,-3.2546701431274414,-10.430091857910156
1706425590697932000,4.47693212890625,2.418814182281494,-3.2164878845214844,-12.421979904174805
1706425590701950500,4.480950439453125,5.4053263664245605,-3.1386938095092773,-14.104076385498047
1706425590705969000,4.484968994140625,7.594396591186523,-3.0098876953125,-15.487966537475586
1706425590709987300,4.4889873046875,8.678050994873047,-3.009798049926758,-15.82078742980957
1706425590714005800,4.493005859375,8.656973838806152,-3.0186500549316406,-15.640920639038086
1706425590718024200,4.497024169921875,7.743527412414551,-2.9167604446411133,-15.400077819824219
1706425590722042400,4.50104248046875,5.9492011070251465,-2.677906036376953,-14.80508041381836
1706425590726060800,4.505060791015625,3.383786916732788,-2.294717788696289,-13.912542343139648
1706425590730079200,4.509079345703125,0.5633602738380432,-1.6352033615112305,-12.704750061035156
1706425590734097400,4.513097412109375,-2.234100341796875,-0.9234504699707031,-10.793693542480469
1706425590738115800,4.51711572265625,-4.502351760864258,-0.2773466110229492,-8.419412612915039
1706425590742134000,4.521134033203125,-6.096343040466309,0.2857780456542969,-6.345371723175049
1706425590746152400,4.52515234375,-6.8869500160217285,0.7170896530151367,-4.598998546600342
1706425590750171000,4.5291708984375,-6.845149517059326,1.0534062385559082,-3.254899501800537
1706425590754189000,4.53318896484375,-6.015710830688477,1.2851905822753906,-2.283663749694824
1706425590758207500,4.53720751953125,-4.731447219848633,1.4357986450195312,-1.2747340202331543
1706425590762225700,4.5412255859375,-3.159679889678955,1.5093574523925781,-0.11468935012817383
1706425590766244000,4.545244140625,-1.4287205934524536,1.5365400314331055,1.0701894760131836
1706425590770262500,4.549262451171875,0.7144871950149536,1.4907917976379395,2.2850794792175293
1706425590774280700,4.55328076171875,2.7931101322174072,1.2813057899475098,3.510796546936035
1706425590778299100,4.557299072265625,3.9011292457580566,0.49713802337646484,4.8712615966796875
1706425590782317600,4.561317626953125,4.365231513977051,-1.0088586807250977,6.01397180557251
1706425590786336000,4.5653359375,4.669355392456055,-2.768651008605957,6.904850006103516
1706425590790354400,4.5693544921875,4.6746134757995605,-4.439095497131348,7.691500663757324
1706425590794372900,4.573372802734375,4.491754531860352,-5.7992963790893555,8.274585723876953
1706425590798391300,4.577391357421875,4.221314907073975,-6.604996681213379,8.387809753417969
1706425590802409700,4.58140966796875,3.842359781265259,-7.0100202560424805,8.091504096984863
1706425590806428200,4.58542822265625,3.494173526763916,-7.32872200012207,7.312580108642578
1706425590810446600,4.589446533203125,3.1210052967071533,-7.6005754470825195,6.1751861572265625
1706425590814465000,4.593465087890625,2.9417972564697266,-7.788877487182617,4.679616451263428
1706425590818483500,4.5974833984375,2.944709300994873,-7.8405256271362305,3.2812697887420654
1706425590822502000,4.601501953125,3.0931284427642822,-7.76930046081543,2.111785888671875
1706425590826520300,4.605520263671875,3.3804659843444824,-7.598380088806152,1.25459623336792
1706425590830538800,4.609538818359375,3.6296210289001465,-7.290777206420898,0.7781686782836914
1706425590834557000,4.613556884765625,3.3756937980651855,-6.660988807678223,0.836613655090332
1706425590838575000,4.6175751953125,2.199683427810669,-5.757843017578125,1.5975747108459473
1706425590842593300,4.62159326171875,0.5137060880661011,-4.841794013977051,3.0972278118133545
1706425590846611500,4.625611572265625,-1.547904372215271,-4.16221809387207,4.67587423324585
1706425590850629600,4.629629638671875,-4.932703018188477,-3.5827436447143555,5.760403633117676
1706425590854647800,4.633647705078125,-9.689987182617188,-2.9126062393188477,6.107277870178223
1706425590858666200,4.637666259765625,-13.264200210571289,-2.253610610961914,5.874063014984131
1706425590862684700,4.6416845703125,-12.436527252197266,-1.7626218795776367,5.9482197761535645
1706425590866703000,4.645703125,-8.783867835998535,-1.4981870651245117,6.706090450286865
1706425590870721800,4.6497216796875,-5.366907596588135,-1.059849739074707,7.382707595825195
1706425590874740200,4.653740234375,-3.046501398086548,-0.2566261291503906,7.349284648895264
1706425590878759000,4.657759033203125,-1.5741817951202393,0.462738037109375,6.868979454040527
1706425590882777300,4.66177734375,-0.3939783573150635,0.9728412628173828,6.4704108238220215
1706425590886796000,4.665796142578125,0.5819664001464844,1.1869783401489258,6.259914398193359
1706425590890814500,4.669814453125,1.424026608467102,1.1480903625488281,6.225812911987305
1706425590894833000,4.6738330078125,2.041900634765625,0.887394905090332,6.286534786224365
1706425590898851300,4.677851318359375,2.474618911743164,0.4746284484863281,6.408002853393555
1706425590902869500,4.681869384765625,2.7634010314941406,-0.07555580139160156,6.541775226593018
1706425590906888000,4.685887939453125,3.016249179840088,-0.6336841583251953,6.596444129943848
1706425590910906400,4.68990625,3.3121707439422607,-1.137582778930664,6.552773952484131
1706425590914924500,4.693924560546875,3.5797111988067627,-1.5156564712524414,6.4061408042907715
1706425590918943000,4.69794287109375,3.7240469455718994,-1.7969465255737305,6.209523677825928
1706425590922961200,4.701961181640625,3.7920756340026855,-1.9316339492797852,6.001784801483154
1706425590926979600,4.7059794921875,3.7975971698760986,-1.9345016479492188,5.7857818603515625
1706425590930998000,4.709998046875,3.7429966926574707,-1.925501823425293,5.631237983703613
1706425590935016200,4.71401611328125,3.659734010696411,-1.9884319305419922,5.495101451873779
1706425590939034600,4.71803466796875,3.529423713684082,-2.1399765014648438,5.413290500640869
1706425590943052800,4.722052734375,3.3457140922546387,-2.3343820571899414,5.4236226081848145
1706425590947071200,4.7260712890625,3.097606897354126,-2.4924001693725586,5.398622512817383
1706425590951086300,4.73008642578125,2.9561827182769775,-2.656735420227051,5.251295566558838
1706425590955098600,4.7340986328125,2.368000030517578,-3.0414209365844727,5.1033830642700195
1706425590959113000,4.738113037109375,1.8386170864105225,-2.926009178161621,4.225000858306885
1706425590963129600,4.742129638671875,2.0379128456115723,-2.836151123046875,3.2675249576568604
1706425590967148800,4.746148681640625,2.644561529159546,-2.684605598449707,2.1140220165252686
1706425590971170000,4.750170166015625,3.0073294639587402,-2.6375083923339844,1.3002450466156006
1706425590975193000,4.754193115234375,2.5331058502197266,-2.3651514053344727,0.7386631965637207
1706425590979216600,4.758216552734375,2.037240982055664,-1.7456588745117188,0.8451311588287354
1706425590983237400,4.7622373046875,1.3357367515563965,-1.362351417541504,0.7510113716125488
1706425590987254800,4.7662548828125,0.8546093702316284,-0.8940963745117188,0.49941444396972656
1706425590991272400,4.7702724609375,0.6528818607330322,-0.40315818786621094,0.24876880645751953
1706425590995290400,4.774290283203125,0.719174325466156,0.012305259704589844,0.13827180862426758
1706425590999308500,4.77830859375,0.8213869333267212,0.37642574310302734,0.1605067253112793
1706425591003327000,4.782326904296875,0.9740524291992188,0.7396059036254883,0.20040035247802734
1706425591007345700,4.786345703125,1.1842225790023804,1.0708093643188477,0.21240973472595215
1706425591011364400,4.7903642578125,1.4752728939056396,1.3964476585388184,0.20119833946228027
1706425591015383600,4.794383544921875,1.7840851545333862,1.6256046295166016,0.20499825477600098
1706425591019402500,4.798402587890625,1.989720344543457,1.777547836303711,0.19479823112487793
1706425591023421200,4.802421142578125,2.086099624633789,1.8833951950073242,0.06530141830444336
1706425591027439600,4.806439697265625,2.2369418144226074,1.969381332397461,-0.1832270622253418
1706425591031457500,4.81045751953125,2.478923797607422,2.0353355407714844,-0.5742514133453369
1706425591035475500,4.814475341796875,2.7793734073638916,2.0929861068725586,-0.956312894821167
1706425591039493400,4.818493408203125,3.038586139678955,2.211470603942871,-1.340815782546997
1706425591043511600,4.822511474609375,3.219555139541626,2.294771671295166,-1.6912744045257568
1706425591047530000,4.826530029296875,3.285705327987671,2.347541332244873,-2.040755271911621
1706425591051548400,4.83054833984375,3.0814995765686035,2.3243041038513184,-2.1905267238616943
1706425591055567000,4.834567138671875,2.808471918106079,2.2252087593078613,-2.349174737930298
1706425591059585800,4.838585693359375,2.333841323852539,2.024142265319824,-2.480956792831421
1706425591063604500,4.8426044921875,1.6831114292144775,1.8386764526367188,-2.466733694076538
1706425591067623200,4.846623046875,1.0112135410308838,1.688176155090332,-2.388463020324707
1706425591071641600,4.8506416015625,0.3677717447280884,1.5967979431152344,-2.2514185905456543
1706425591075660000,4.854659912109375,-0.2169906497001648,1.5527849197387695,-2.108691692352295
1706425591079678200,4.85867822265625,-0.6868423223495483,1.5276212692260742,-2.0180351734161377
1706425591083696400,4.8626962890625,-1.115054726600647,1.5501537322998047,-1.8812675476074219
1706425591087714800,4.86671484375,-1.3907573223114014,1.5918292999267578,-1.7178280353546143
1706425591091733000,4.87073291015625,-1.5473161935806274,1.6431760787963867,-1.6283583641052246
1706425591095751200,4.874751220703125,-1.630373477935791,1.675553321838379,-1.4693667888641357
1706425591099769300,4.878769287109375,-1.6426351070404053,1.6698970794677734,-1.3774945735931396
1706425591103787500,4.88278759765625,-1.5489611625671387,1.6190195083618164,-1.3048222064971924
1706425591107806000,4.886805908203125,-1.4198143482208252,1.5181560516357422,-1.170302152633667
1706425591111824400,4.890824462890625,-1.3425021171569824,1.3959598541259766,-0.9837355613708496
1706425591115842600,4.894842529296875,-1.4687784910202026,1.2308216094970703,-0.6784563064575195
1706425591119861000,4.898861083984375,-1.758346438407898,1.0371131896972656,-0.33147525787353516
1706425591123879400,4.90287939453125,-2.1059587001800537,0.7981061935424805,-0.03152346611022949
1706425591127897900,4.90689794921875,-2.4875197410583496,0.5019245147705078,0.18539607524871826
1706425591131916300,4.910916259765625,-2.849900245666504,0.20845985412597656,0.36505305767059326
1706425591135934700,4.914934814453125,-3.1922385692596436,-0.08459663391113281,0.4502474069595337
1706425591139953200,4.918953125,-3.472785472869873,-0.36036109924316406,0.4532308578491211
1706425591143971600,4.9229716796875,-3.6806540489196777,-0.609105110168457,0.3743356466293335
1706425591147990000,4.926989990234375,-3.719177484512329,-0.8235464096069336,0.19718337059020996
1706425591152008400,4.931008544921875,-3.604565143585205,-0.9940738677978516,-0.10415661334991455
1706425591156027100,4.935027099609375,-3.3077232837677,-1.0776357650756836,-0.5387253761291504
1706425591160045600,4.939045654296875,-2.8479526042938232,-1.0839300155639648,-1.0175861120224
1706425591164064300,4.943064208984375,-2.302157402038574,-1.053812026977539,-1.4637247323989868
1706425591168082700,4.947082763671875,-1.7045214176177979,-1.0113554000854492,-1.834027647972107
1706425591172101000,4.95110107421875,-1.0391579866409302,-0.9471311569213867,-2.1070690155029297
1706425591176119800,4.955119873046875,-0.3765970468521118,-0.8373985290527344,-2.275890588760376
1706425591180137700,4.9591376953125,0.2915269136428833,-0.7613010406494141,-2.348151922225952
1706425591184156000,4.963156005859375,0.9496680498123169,-0.6686801910400391,-2.357837677001953
1706425591188173800,4.967173828125,1.5080091953277588,-0.5596828460693359,-2.3341879844665527
1706425591192192000,4.97119189453125,1.9777473211288452,-0.4176483154296875,-2.2992467880249023
1706425591196210200,4.975210205078125,2.3080215454101562,-0.27137279510498047,-2.265392303466797
1706425591200228900,4.979228759765625,2.5200369358062744,-0.11133670806884766,-2.2807130813598633
1706425591204247600,4.98324755859375,2.5969576835632324,0.048065185546875,-2.3476736545562744
1706425591208266200,4.987266357421875,2.548494815826416,0.2139873504638672,-2.518775463104248
1706425591212285000,4.991284912109375,2.3367583751678467,0.38161277770996094,-2.690659523010254
1706425591216303400,4.995303466796875,1.9672415256500244,0.5222320556640625,-2.937009811401367
1706425591220321800,4.99932177734375,1.498199224472046,0.6645927429199219,-3.2187328338623047
1706425591224340000,5.003340087890625,0.9568418264389038,0.7608747482299805,-3.477628231048584
1706425591228358000,5.00735791015625,0.4301788806915283,0.8303203582763672,-3.68184757232666
1706425591232375800,5.011375732421875,-0.07143712043762207,0.8826360702514648,-3.7927896976470947
1706425591236393700,5.015393798828125,-0.48031485080718994,0.8988056182861328,-3.877277135848999
1706425591240412000,5.019411865234375,-0.779434084892273,0.9124555587768555,-3.9329493045806885
1706425591244430300,5.023430419921875,-0.9853615760803223,0.9284505844116211,-3.9335732460021973
1706425591248448800,5.02744873046875,-1.0812697410583496,0.9444675445556641,-3.96079683303833
1706425591252467700,5.0314677734375,-1.0219687223434448,0.9652814865112305,-4.038491725921631
1706425591256486400,5.035486328125,-0.8869372606277466,0.9597682952880859,-4.1189422607421875
1706425591260505300,5.03950537109375,-0.6959611177444458,0.9518299102783203,-4.188009262084961
1706425591264523800,5.043523681640625,-0.48319029808044434,0.9055299758911133,-4.219702243804932
1706425591268542000,5.0475419921875,-0.28724217414855957,0.8496198654174805,-4.250314712524414
1706425591272560000,5.05156005859375,-0.10128509998321533,0.8080053329467773,-4.284825801849365
1706425591276578300,5.055578369140625,0.05295538902282715,0.7926120758056641,-4.33055305480957
1706425591280596700,5.0595966796875,0.16589033603668213,0.7675342559814453,-4.320662975311279
1706425591284615200,5.063615234375,0.24481022357940674,0.775853157043457,-4.3125786781311035
1706425591288633600,5.067633544921875,0.2827192544937134,0.7744894027709961,-4.236947536468506
1706425591292652000,5.071652099609375,0.34921908378601074,0.8113374710083008,-4.175276756286621
1706425591296670500,5.07567041015625,0.3726346492767334,0.8385238647460938,-4.041440486907959
1706425591300689000,5.07968896484375,0.42009472846984863,0.8799943923950195,-3.8977108001708984
1706425591304707300,5.083707275390625,0.4724900722503662,0.9357538223266602,-3.7394425868988037
1706425591308725800,5.087725830078125,0.5034869909286499,0.9818592071533203,-3.576226234436035
1706425591312744200,5.091744140625,0.5440618991851807,1.013524055480957,-3.3938145637512207
1706425591316762600,5.0957626953125,0.5869251489639282,1.064249038696289,-3.235334873199463
1706425591320781000,5.099781005859375,0.6366724967956543,1.1004915237426758,-3.0864248275756836
1706425591324799500,5.103799560546875,0.6691004037857056,1.1341924667358398,-2.9853169918060303
1706425591328818000,5.10781787109375,0.672105073928833,1.160543441772461,-2.8888208866119385
1706425591332836400,5.11183642578125,0.6622540950775146,1.1890859603881836,-2.789632558822632
1706425591336854800,5.115854736328125,0.5940426588058472,1.1863059997558594,-2.7044057846069336
1706425591340873200,5.119873291015625,0.48208487033843994,1.233616828918457,-2.6545932292938232
1706425591344891600,5.1238916015625,0.3098512887954712,1.3524961471557617,-2.6160647869110107
1706425591348910000,5.12791015625,0.08029305934906006,1.4424161911010742,-2.5860233306884766
1706425591352928300,5.13192822265625,-0.2273787260055542,1.4412908554077148,-2.631228446960449
1706425591356946700,5.13594677734375,-0.5501837730407715,1.3206052780151367,-2.7274255752563477
1706425591360964600,5.139964599609375,-0.7941932678222656,1.0949325561523438,-3.027437686920166
1706425591364982800,5.143982666015625,-0.8612602949142456,0.7883157730102539,-3.556790590286255
1706425591369001000,5.1480009765625,-0.7876795530319214,0.46297454833984375,-4.2593674659729
1706425591373019100,5.15201904296875,-0.628955602645874,0.15948104858398438,-4.916200160980225
1706425591377037300,5.156037353515625,-0.39053404331207275,-0.1414947509765625,-5.516764163970947
1706425591381056000,5.160055908203125,-0.1519707441329956,-0.4448890686035156,-5.849886417388916
1706425591385074400,5.164074462890625,0.07922101020812988,-0.6694469451904297,-5.913419246673584
1706425591389092900,5.1680927734375,0.395849347114563,-0.856048583984375,-5.947090148925781
1706425591393111600,5.172111572265625,0.739854097366333,-0.9258766174316406,-5.755246162414551
1706425591397130000,5.1761298828125,0.9123388528823853,-0.8025674819946289,-5.501369476318359
1706425591401148700,5.180148681640625,0.8633347749710083,-0.6490755081176758,-5.073422431945801
1706425591405167000,5.1841669921875,0.6247320175170898,-0.39600467681884766,-4.6300048828125
1706425591409185800,5.188185791015625,0.23575913906097412,-0.17021465301513672,-4.228923320770264
1706425591413204200,5.192204345703125,-0.3814527988433838,0.011691093444824219,-3.8658013343811035
1706425591417222700,5.19622265625,-1.340511679649353,0.05419158935546875,-3.5937633514404297
1706425591421240800,5.20024072265625,-2.9391164779663086,0.017409324645996094,-3.4084856510162354
1706425591425259300,5.20425927734375,-5.6412506103515625,-0.1078805923461914,-3.3511695861816406
1706425591429277400,5.20827734375,-8.798727989196777,-0.21832752227783203,-3.393174171447754
1706425591433296000,5.2122958984375,-11.134077072143555,-0.3137168884277344,-3.5574023723602295
1706425591437314300,5.216314208984375,-10.904441833496094,-0.4230003356933594,-3.8014755249023438
1706425591441332500,5.22033251953125,-9.068594932556152,-0.5779352188110352,-3.930081844329834
1706425591445351000,5.224350830078125,-7.032774448394775,-0.8270711898803711,-3.9448986053466797
1706425591449369000,5.228369140625,-5.15391206741333,-1.197336196899414,-3.9459924697875977
1706425591453387500,5.232387451171875,-3.4532792568206787,-1.6652326583862305,-3.9261131286621094
1706425591457406000,5.236406005859375,-1.9496026039123535,-2.202427864074707,-3.8589556217193604
1706425591461424400,5.24042431640625,-0.6615192890167236,-2.754190444946289,-3.723252534866333
1706425591465442800,5.24444287109375,0.4452466368675232,-3.304041862487793,-3.483456611633301
1706425591469461200,5.248461181640625,1.3261194229125977,-3.8377790451049805,-3.1928493976593018
1706425591473479700,5.252479736328125,2.044490337371826,-4.350675582885742,-2.7325031757354736
1706425591477498000,5.256498046875,2.6422786712646484,-4.878554344177246,-2.0915169715881348
1706425591481516500,5.2605166015625,3.1904377937316895,-5.311094284057617,-1.5104649066925049
1706425591485535000,5.264534912109375,3.6595969200134277,-5.736681938171387,-0.8872630596160889
1706425591489553400,5.268553466796875,4.082635402679443,-6.0832414627075195,-0.33768153190612793
1706425591493571800,5.27257177734375,4.337306976318359,-6.474887847900391,0.29050779342651367
1706425591497590300,5.27659033203125,4.402305603027344,-6.820296287536621,0.8242108821868896
1706425591501608400,5.2806083984375,4.373683929443359,-7.188510894775391,1.442183256149292
1706425591505627000,5.284626953125,4.306884765625,-7.557546615600586,1.968869686126709
